% This file was created with tikzplotlib v0.10.1.
\begin{tikzpicture}

\definecolor{darkgray176}{RGB}{176,176,176}
\definecolor{darkorange25512714}{RGB}{255,127,14}
\definecolor{steelblue31119180}{RGB}{31,119,180}

\begin{axis}[
tick align=outside,
tick pos=left,
title={Hastighet P-regulator},
x grid style={darkgray176},
xlabel={\(\displaystyle t\) [ms]},
xmin=-46.1769, xmax=969.714900000001,
xtick style={color=black},
xtick={-200,0,200,400,600,800,1000},
xticklabels={
  \(\displaystyle {\ensuremath{-}200}\),
  \(\displaystyle {0}\),
  \(\displaystyle {200}\),
  \(\displaystyle {400}\),
  \(\displaystyle {600}\),
  \(\displaystyle {800}\),
  \(\displaystyle {1000}\)
},
y grid style={darkgray176},
ylabel={\(\displaystyle V\) [V]},
ymin=-0.286132745, ymax=5.364255845,
ytick style={color=black},
ytick={-1,0,1,2,3,4,5,6},
yticklabels={
  \(\displaystyle {\ensuremath{-}1}\),
  \(\displaystyle {0}\),
  \(\displaystyle {1}\),
  \(\displaystyle {2}\),
  \(\displaystyle {3}\),
  \(\displaystyle {4}\),
  \(\displaystyle {5}\),
  \(\displaystyle {6}\)
}
]
\addplot [semithick, steelblue31119180]
table {%
0 1.14258
0.462000000000629 1.18164
0.924000000000369 1.12305
1.38600000000011 1.18164
1.84800000000074 1.18164
2.31000000000048 1.2207
2.77200000000022 1.16211
3.23400000000085 1.10352
3.69600000000059 1.2207
4.15800000000033 1.16211
4.62000000000007 1.20117
5.0820000000007 1.14258
5.54400000000044 1.14258
6.00600000000018 1.14258
6.46800000000081 1.14258
6.93000000000055 1.14258
7.39200000000029 1.14258
7.85400000000003 1.20117
8.31600000000066 1.12305
8.7780000000004 1.12305
9.24000000000014 1.20117
9.70200000000077 1.10352
10.1640000000005 1.2207
10.6260000000002 1.12305
11.0880000000009 1.14258
11.5500000000006 1.16211
12.0120000000004 1.2207
12.4740000000001 1.12305
12.9360000000007 1.20117
13.3980000000005 1.08398
13.8600000000002 1.20117
14.3220000000008 1.20117
14.7840000000006 1.12305
15.2460000000003 1.18164
15.7080000000001 1.16211
16.1700000000007 1.16211
16.6320000000004 1.16211
17.0940000000002 1.18164
17.5560000000008 1.14258
18.0180000000005 1.12305
18.4800000000003 1.14258
18.942 1.18164
19.4040000000006 1.2207
19.8660000000004 1.10352
20.3280000000001 1.20117
20.7900000000008 1.14258
21.2520000000005 1.14258
21.7140000000002 1.2207
22.1760000000009 1.2207
22.6380000000006 1.14258
23.1000000000003 1.10352
23.5620000000001 1.20117
24.0240000000007 1.20117
24.4860000000005 1.18164
24.9480000000002 1.18164
25.4100000000008 1.14258
25.8720000000006 1.14258
26.3340000000003 1.25977
26.796 1.2207
27.2580000000007 1.14258
27.7200000000004 1.25977
28.1820000000002 1.16211
28.6440000000008 1.12305
29.1060000000005 1.18164
29.5680000000003 1.14258
30.03 1.2207
30.4920000000006 1.16211
30.9540000000004 1.20117
31.4160000000001 1.14258
31.8780000000007 1.18164
32.3400000000005 1.14258
32.8020000000002 1.14258
33.2640000000008 1.20117
33.7260000000006 1.10352
34.1880000000003 1.16211
34.6500000000001 1.20117
35.1120000000007 1.10352
35.5740000000004 1.14258
36.0360000000002 1.14258
36.4980000000008 1.14258
36.9600000000005 1.06445
37.4220000000003 1.12305
37.884 1.20117
38.3460000000007 1.14258
38.8080000000004 1.20117
39.2700000000001 1.12305
39.7320000000008 1.16211
40.1940000000005 1.10352
40.6560000000002 1.16211
41.1180000000009 1.20117
41.5800000000006 1.2207
42.0420000000004 1.14258
42.5040000000001 1.18164
42.9660000000007 1.2207
43.4280000000005 1.10352
43.8900000000002 1.2207
44.3520000000008 1.20117
44.8140000000006 1.08398
45.2760000000003 1.14258
45.7380000000001 1.18164
46.2000000000007 1.16211
46.6620000000004 1.10352
47.1240000000002 1.10352
47.5860000000008 1.14258
48.0480000000005 1.2207
48.5100000000003 1.14258
48.972 1.14258
49.4340000000006 1.14258
49.8960000000004 1.20117
50.3580000000001 1.2207
50.8200000000008 1.20117
51.2820000000005 1.16211
51.7440000000002 1.14258
52.2060000000009 1.18164
52.6680000000006 1.18164
53.1300000000003 1.16211
53.5920000000001 1.18164
54.0540000000007 1.12305
54.5160000000005 1.20117
54.9780000000002 1.16211
55.4400000000008 1.20117
55.9020000000006 1.14258
56.3640000000003 1.18164
56.826 1.18164
57.2880000000007 1.18164
57.7500000000004 1.18164
58.2120000000002 1.16211
58.6740000000008 1.18164
59.1360000000005 1.12305
59.5980000000003 1.16211
60.06 1.14258
60.5220000000006 1.14258
60.9840000000004 1.10352
61.4460000000001 1.16211
61.9080000000007 1.20117
62.3700000000005 1.10352
62.8320000000002 1.14258
63.2940000000008 1.14258
63.7560000000006 1.20117
64.2180000000003 1.14258
64.6800000000001 1.14258
65.1420000000007 1.12305
65.6040000000004 1.10352
66.0660000000002 1.2207
66.5280000000008 1.14258
66.9900000000005 1.20117
67.4520000000003 1.14258
67.914 1.2207
68.3760000000007 1.08398
68.8380000000004 1.14258
69.3000000000001 1.18164
69.7620000000008 1.16211
70.2240000000005 1.20117
70.6860000000002 1.18164
71.1480000000009 1.16211
71.6100000000006 1.10352
72.0720000000004 1.20117
72.5340000000001 1.10352
72.9960000000007 1.2207
73.4580000000005 1.2207
73.9200000000002 1.14258
74.3820000000008 1.16211
74.8440000000006 1.14258
75.3060000000003 1.18164
75.7680000000001 1.25977
76.2300000000007 1.18164
76.6920000000004 1.16211
77.1540000000002 1.18164
77.6160000000008 1.14258
78.0780000000005 1.2207
78.5400000000003 1.14258
79.002 1.12305
79.4640000000007 1.14258
79.9260000000004 1.20117
80.3880000000001 1.2207
80.8500000000008 1.10352
81.3120000000005 1.16211
81.7740000000002 1.08398
82.2360000000009 1.14258
82.6980000000006 1.18164
83.1600000000003 1.2207
83.6220000000001 1.20117
84.0840000000007 1.2207
84.5460000000004 1.20117
85.0080000000002 1.20117
85.4700000000008 1.14258
85.9320000000006 1.20117
86.3940000000003 1.12305
86.8560000000001 1.14258
87.3180000000007 1.18164
87.7800000000004 1.16211
88.2420000000002 1.14258
88.7040000000008 1.18164
89.1660000000005 1.20117
89.6280000000003 1.20117
90.09 1.14258
90.5520000000006 1.18164
91.0140000000004 1.18164
91.4760000000001 1.18164
91.9380000000007 1.20117
92.4000000000005 1.24023
92.8620000000002 1.20117
93.3240000000009 1.14258
93.7860000000006 1.06445
94.2480000000003 1.16211
94.7100000000001 1.20117
95.1720000000007 1.12305
95.6340000000004 1.25977
96.0960000000002 1.2207
96.5580000000008 1.14258
97.0200000000006 1.14258
97.4820000000003 1.14258
97.944 1.16211
98.4060000000007 1.20117
98.8680000000004 1.20117
99.3300000000001 1.18164
99.7920000000008 1.20117
100.254000000001 1.18164
100.716 1.18164
101.178000000001 1.14258
101.640000000001 1.14258
102.102 1.14258
102.564 1.18164
103.026000000001 1.10352
103.488 1.14258
103.95 1.14258
104.412000000001 1.14258
104.874000000001 1.14258
105.336 1.16211
105.798 1.14258
106.260000000001 1.18164
106.722 1.14258
107.184 1.18164
107.646000000001 1.10352
108.108000000001 1.16211
108.57 1.10352
109.032 1.16211
109.494000000001 1.12305
109.956 1.14258
110.418 1.16211
110.880000000001 1.16211
111.342 1.10352
111.804 1.2207
112.266000000001 1.12305
112.728000000001 1.14258
113.19 1.16211
113.652 1.14258
114.114000000001 1.12305
114.576 1.20117
115.038 1.06445
115.500000000001 1.14258
115.962000000001 1.14258
116.424 1.20117
116.886 1.20117
117.348000000001 1.14258
117.81 1.20117
118.272 1.18164
118.734000000001 1.18164
119.196000000001 1.2207
119.658 1.18164
120.12 1.16211
120.582000000001 1.16211
121.044 1.12305
121.506 1.14258
121.968000000001 1.18164
122.43 1.18164
122.892 1.2207
123.354000000001 1.14258
123.816000000001 1.20117
124.278 1.10352
124.74 1.20117
125.202000000001 1.14258
125.664 1.18164
126.126 1.12305
126.588000000001 1.20117
127.050000000001 1.14258
127.512 1.2207
127.974 1.18164
128.436000000001 1.2207
128.898 1.16211
129.36 1.14258
129.822000000001 1.18164
130.284000000001 1.18164
130.746 1.10352
131.208000000001 1.14258
131.670000000001 1.14258
132.132 1.18164
132.594 1.16211
133.056000000001 1.2793
133.518 1.12305
133.98 1.14258
134.442000000001 1.12305
134.904000000001 1.18164
135.366 1.14258
135.828 1.2207
136.290000000001 1.14258
136.752 1.18164
137.214 1.10352
137.676000000001 1.14258
138.138000000001 1.14258
138.6 1.10352
139.062 1.16211
139.524000000001 1.14258
139.986 1.20117
140.448 1.20117
140.910000000001 1.12305
141.372 1.20117
141.834 1.14258
142.296000000001 1.14258
142.758000000001 1.18164
143.22 1.10352
143.682 1.16211
144.144000000001 1.14258
144.606 1.16211
145.068 1.16211
145.530000000001 1.08398
145.992000000001 1.20117
146.454 1.14258
146.916 1.18164
147.378000000001 1.14258
147.84 1.16211
148.302 1.20117
148.764000000001 1.18164
149.226000000001 1.20117
149.688 1.20117
150.15 1.2207
150.612000000001 1.14258
151.074 1.2207
151.536 1.12305
151.998000000001 1.14258
152.46 1.16211
152.922 1.20117
153.384000000001 1.14258
153.846000000001 1.18164
154.308 1.18164
154.77 1.14258
155.232000000001 1.18164
155.694 1.14258
156.156 1.2793
156.618000000001 1.2207
157.080000000001 1.14258
157.542 1.16211
158.004 1.12305
158.466000000001 1.18164
158.928 1.24023
159.39 1.16211
159.852000000001 1.18164
160.314000000001 1.20117
160.776 1.20117
161.238000000001 1.2207
161.700000000001 1.20117
162.162 1.10352
162.624 1.14258
163.086000000001 1.16211
163.548 1.16211
164.01 1.14258
164.472000000001 1.14258
164.934000000001 1.18164
165.396 1.14258
165.858 1.16211
166.320000000001 1.14258
166.782 1.2207
167.244 1.14258
167.706000000001 1.18164
168.168000000001 1.18164
168.63 1.20117
169.092 1.16211
169.554000000001 1.18164
170.016 1.14258
170.478 1.20117
170.940000000001 1.18164
171.402 1.14258
171.864 1.16211
172.326000000001 1.20117
172.788000000001 1.16211
173.25 1.20117
173.712 1.2207
174.174000000001 1.14258
174.636 1.18164
175.098 1.14258
175.560000000001 1.16211
176.022000000001 1.16211
176.484 1.14258
176.946 1.12305
177.408000000001 1.20117
177.87 1.18164
178.332 1.14258
178.794000000001 1.16211
179.256000000001 1.14258
179.718 1.20117
180.18 1.14258
180.642000000001 1.20117
181.104 1.14258
181.566 1.14258
182.028000000001 1.20117
182.49 1.18164
182.952 1.16211
183.414000000001 1.14258
183.876000000001 1.20117
184.338 1.16211
184.8 1.16211
185.262000000001 1.18164
185.724 1.16211
186.186 1.14258
186.648000000001 1.18164
187.110000000001 1.20117
187.572 1.16211
188.034 1.14258
188.496000000001 1.14258
188.958 1.16211
189.42 1.2207
189.882000000001 1.20117
190.344000000001 1.16211
190.806 1.16211
191.268 1.14258
191.730000000001 1.20117
192.192 1.14258
192.654 1.04492
193.116000000001 1.18164
193.578 1.16211
194.04 1.12305
194.502000000001 1.14258
194.964000000001 1.12305
195.426 1.14258
195.888 1.2207
196.350000000001 1.12305
196.812 1.2207
197.274 1.2207
197.736000000001 1.2207
198.198000000001 1.14258
198.66 1.2207
199.122 1.08398
199.584000000001 1.14258
200.046 1.2207
200.508 1.16211
200.970000000001 1.20117
201.432 1.12305
201.894 1.14258
202.356000000001 1.18164
202.818000000001 1.14258
203.28 1.16211
203.742 1.16211
204.204000000001 1.24023
204.666 1.14258
205.128 1.20117
205.590000000001 1.20117
206.052000000001 1.14258
206.514 1.2207
206.976 1.2207
207.438000000001 1.12305
207.9 1.18164
208.362 1.10352
208.824000000001 1.18164
209.286000000001 1.14258
209.748 1.14258
210.21 1.20117
210.672000000001 1.16211
211.134 1.18164
211.596 1.14258
212.058000000001 1.16211
212.52 1.14258
212.982 1.14258
213.444000000001 1.20117
213.906000000001 1.20117
214.368 1.14258
214.83 1.14258
215.292000000001 1.14258
215.754 1.18164
216.216 1.12305
216.678000000001 1.16211
217.140000000001 1.16211
217.602 1.14258
218.064 1.14258
218.526000000001 1.2207
218.988 1.20117
219.45 1.14258
219.912000000001 1.18164
220.374000000001 1.10352
220.836 1.18164
221.298 1.18164
221.760000000001 1.14258
222.222 1.12305
222.684 1.14258
223.146000000001 1.18164
223.608 1.18164
224.07 1.18164
224.532000000001 1.2207
224.994000000001 1.16211
225.456 1.14258
225.918 1.14258
226.380000000001 1.14258
226.842 1.18164
227.304 1.14258
227.766000000001 1.20117
228.228000000001 1.20117
228.69 1.16211
229.152 1.12305
229.614000000001 1.20117
230.076 1.16211
230.538 1.20117
231.000000000001 1.14258
231.462000000001 1.14258
231.924 1.16211
232.386000000001 1.2207
232.848000000001 1.18164
233.31 1.20117
233.772 1.14258
234.234000000001 1.16211
234.696 1.14258
235.158 1.2207
235.620000000001 1.20117
236.082000000001 1.14258
236.544 1.18164
237.006 1.20117
237.468000000001 1.20117
237.93 1.18164
238.392 1.2207
238.854000000001 1.14258
239.316000000001 1.14258
239.778 1.18164
240.24 1.20117
240.702000000001 1.12305
241.164 1.20117
241.626 1.12305
242.088000000001 1.20117
242.55 1.18164
243.012 1.14258
243.474000000001 1.20117
243.936000000001 1.20117
244.398 1.10352
244.86 1.16211
245.322000000001 1.18164
245.784 1.14258
246.246 1.06445
246.708000000001 1.14258
247.170000000001 1.14258
247.632 1.12305
248.094 1.16211
248.556000000001 1.14258
249.018 1.08398
249.48 1.16211
249.942000000001 1.14258
250.404000000001 1.18164
250.866 1.2207
251.328 1.10352
251.790000000001 1.10352
252.252 1.10352
252.714 1.12305
253.176000000001 1.16211
253.638 1.08398
254.1 1.12305
254.562000000001 1.20117
255.024000000001 1.14258
255.486 1.16211
255.948 1.20117
256.410000000001 1.2207
256.872 1.08398
257.334 1.10352
257.796000000001 1.14258
258.258000000001 1.20117
258.72 1.24023
259.182 1.20117
259.644000000001 1.18164
260.106 1.18164
260.568 1.18164
261.030000000001 1.14258
261.492000000001 1.16211
261.954 1.08398
262.416000000001 1.16211
262.878000000001 1.16211
263.34 1.2207
263.802 1.20117
264.264000000001 1.14258
264.726 1.20117
265.188 1.18164
265.650000000001 1.14258
266.112000000001 1.14258
266.574 1.14258
267.036 1.08398
267.498000000001 1.12305
267.96 1.20117
268.422 1.20117
268.884000000001 1.16211
269.346000000001 1.16211
269.808 1.10352
270.27 1.18164
270.732000000001 1.14258
271.194 1.20117
271.656 1.14258
272.118000000001 1.16211
272.58 1.18164
273.042 1.20117
273.504000000001 1.10352
273.966000000001 1.2793
274.428 1.16211
274.89 1.14258
275.352000000001 1.16211
275.814 1.12305
276.276 1.18164
276.738000000001 1.18164
277.200000000001 1.25977
277.662 1.20117
278.124 1.14258
278.586000000001 1.24023
279.048 1.14258
279.51 1.12305
279.972000000001 1.16211
280.434000000001 1.14258
280.896 1.24023
281.358 1.12305
281.820000000001 1.18164
282.282 1.14258
282.744 1.20117
283.206000000001 1.2207
283.668 1.2793
284.13 1.14258
284.592000000001 1.2207
285.054000000001 1.18164
285.516 1.2207
285.978 1.16211
286.440000000001 1.16211
286.902 1.14258
287.364 1.18164
287.826000000001 1.14258
288.288000000001 1.14258
288.75 1.16211
289.212 1.20117
289.674000000001 1.12305
290.136 1.18164
290.598 1.16211
291.060000000001 1.18164
291.522000000001 1.25977
291.984 1.20117
292.446000000001 1.16211
292.908000000001 1.14258
293.37 1.12305
293.832 1.16211
294.294000000001 1.14258
294.756 1.18164
295.218 1.14258
295.680000000001 1.2207
296.142000000001 1.16211
296.604 1.20117
297.066 1.2207
297.528000000001 1.14258
297.99 1.16211
298.452 1.12305
298.914000000001 1.12305
299.376000000001 1.14258
299.838 1.2207
300.3 1.10352
300.762000000001 1.14258
301.224 0.126953
301.686 -0.0292969
302.148000000001 0.107422
302.61 0.126953
303.072 0.126953
303.534000000001 0.0683594
303.996000000001 0.166016
304.458 0.146484
304.92 0.146484
305.382000000001 0.166016
305.844 0.224609
306.306 0.205078
306.768000000001 0.166016
307.230000000001 0.224609
307.692 0.205078
308.154 0.263672
308.616000000001 0.205078
309.078 0.322266
309.54 0.361328
310.002000000001 0.302734
310.464000000001 0.419922
310.926 0.400391
311.388 0.419922
311.850000000001 0.419922
312.312 0.556641
312.774 0.595703
313.236000000001 0.634766
313.698 0.712891
314.16 0.732422
314.622000000001 0.849609
315.084000000001 0.732422
315.546 0.849609
316.008 0.888672
316.470000000001 0.986328
316.932 0.966797
317.394 0.986328
317.856000000001 1.00586
318.318000000001 0.966797
318.78 1.10352
319.242 1.10352
319.704000000001 1.14258
320.166 1.20117
320.628 1.2207
321.090000000001 1.2207
321.552 1.2793
322.014 1.2793
322.476000000001 1.2793
322.938000000001 1.33789
323.4 1.31836
323.862 1.43555
324.324000000001 1.43555
324.786 1.47461
325.248 1.49414
325.710000000001 1.45508
326.172000000001 1.49414
326.634 1.51367
327.096 1.55273
327.558000000001 1.61133
328.02 1.63086
328.482 1.66992
328.944000000001 1.66992
329.406000000001 1.61133
329.868 1.68945
330.33 1.68945
330.792000000001 1.78711
331.254 1.80664
331.716 1.8457
332.178000000001 1.8457
332.64 1.78711
333.102 1.88477
333.564000000001 1.86523
334.026000000001 1.9043
334.488 1.9043
334.95 1.92383
335.412000000001 2.04102
335.874 2.08008
336.336 2.00195
336.798000000001 2.02148
337.260000000001 2.06055
337.722 2.09961
338.184 2.1582
338.646000000001 2.13867
339.108 2.2168
339.57 2.11914
340.032000000001 2.2168
340.494000000001 2.1582
340.956 2.19727
341.418 2.29492
341.880000000001 2.33398
342.342 2.29492
342.804 2.27539
343.266000000001 2.37305
343.728 2.35352
344.19 2.43164
344.652000000001 2.31445
345.114000000001 2.43164
345.576 2.35352
346.038 2.43164
346.500000000001 2.50977
346.962 2.5293
347.424 2.50977
347.886000000001 2.62695
348.348000000001 2.66602
348.81 2.80273
349.272 2.90039
349.734000000001 2.91992
350.196 2.90039
350.658 2.91992
351.120000000001 2.91992
351.582000000001 2.86133
352.044 2.91992
352.506000000001 2.97852
352.968000000001 3.03711
353.43 2.93945
353.892 3.01758
354.354000000001 2.97852
354.816 3.03711
355.278 3.01758
355.740000000001 3.05664
356.202000000001 3.0957
356.664 3.17383
357.126 3.1543
357.588000000001 3.19336
358.05 3.1543
358.512 3.25195
358.974000000001 3.27148
359.436000000001 3.27148
359.898 3.21289
360.36 3.27148
360.822000000001 3.29102
361.284 3.29102
361.746 3.34961
362.208000000001 3.34961
362.67 3.36914
363.132 3.44727
363.594000000001 3.4668
364.056000000001 3.4668
364.518 3.36914
364.98 3.4082
365.442000000001 3.36914
365.904 3.4082
366.366 3.42773
366.828000000001 3.4668
367.290000000001 3.50586
367.752 3.54492
368.214 3.62305
368.676000000001 3.56445
369.138 3.56445
369.6 3.52539
370.062000000001 3.50586
370.524000000001 3.56445
370.986 3.54492
371.448 3.54492
371.910000000001 3.62305
372.372 3.62305
372.834 3.60352
373.296000000001 3.70117
373.758 3.66211
374.22 3.7207
374.682000000001 3.66211
375.144000000001 3.7207
375.606 3.7207
376.068 3.64258
376.530000000001 3.79883
376.992 3.7207
377.454 3.7207
377.916000000001 3.79883
378.378000000001 3.79883
378.84 3.81836
379.302 3.79883
379.764000000001 3.74023
380.226 3.75977
380.688 3.87695
381.150000000001 3.79883
381.612000000001 3.87695
382.074 3.85742
382.536000000001 3.83789
382.998000000001 3.91602
383.46 3.87695
383.922 3.93555
384.384000000001 3.93555
384.846 3.97461
385.308 3.97461
385.770000000001 3.89648
386.232000000001 4.01367
386.694 4.01367
387.156 3.99414
387.618000000001 3.95508
388.08 4.01367
388.542 3.97461
389.004000000001 3.97461
389.466000000001 4.01367
389.928 4.0332
390.39 3.95508
390.852000000001 4.01367
391.314 4.01367
391.776 4.07227
392.238000000001 4.01367
392.700000000001 4.01367
393.162 4.05273
393.624000000001 4.0918
394.086000000001 4.05273
394.548 4.18945
395.01 4.11133
395.472000000001 4.05273
395.934 4.07227
396.396 4.15039
396.858000000001 4.16992
397.320000000001 4.15039
397.782 4.18945
398.244 4.15039
398.706000000001 4.13086
399.168 4.13086
399.63 4.18945
400.092000000001 4.15039
400.554000000001 4.22852
401.016 4.13086
401.478 4.15039
401.940000000001 4.22852
402.402 4.22852
402.864 4.24805
403.326000000001 4.26758
403.788 4.26758
404.25 4.24805
404.712000000001 4.28711
405.174000000001 4.30664
405.636 4.26758
406.098 4.22852
406.560000000001 4.32617
407.022 4.26758
407.484 4.32617
407.946000000001 4.36523
408.408000000001 4.36523
408.87 4.32617
409.332 4.44336
409.794000000001 4.4043
410.256 4.30664
410.718 4.30664
411.180000000001 4.32617
411.642000000001 4.32617
412.104 4.32617
412.566000000001 4.36523
413.028000000001 4.4043
413.49 4.46289
413.952 4.38477
414.414000000001 4.44336
414.876 4.3457
415.338 4.32617
415.800000000001 4.4043
416.262000000001 4.38477
416.724 4.36523
417.186 4.50195
417.648000000001 4.50195
418.11 4.54102
418.572 4.50195
419.034000000001 4.48242
419.496000000001 4.50195
419.958 4.52148
420.42 4.42383
420.882000000001 4.44336
421.344 4.42383
421.806 4.42383
422.268000000001 4.46289
422.73 4.46289
423.192 4.50195
423.654000000001 4.52148
424.116000000001 4.50195
424.578 4.56055
425.04 4.44336
425.502000000001 4.48242
425.964 4.48242
426.426 4.54102
426.888000000001 4.50195
427.350000000001 4.46289
427.812 4.56055
428.274 4.50195
428.736000000001 4.52148
429.198 4.58008
429.66 4.63867
430.122000000001 4.54102
430.584000000001 4.61914
431.046 4.58008
431.508 4.58008
431.970000000001 4.58008
432.432 4.56055
432.894 4.56055
433.356000000001 4.58008
433.818 4.54102
434.28 4.56055
434.742000000001 4.58008
435.204000000001 4.67773
435.666 4.59961
436.128 4.58008
436.590000000001 4.61914
437.052 4.6582
437.514 4.63867
437.976000000001 4.58008
438.438000000001 4.54102
438.9 4.63867
439.362 4.6582
439.824000000001 4.6582
440.286 4.61914
440.748 4.6582
441.210000000001 4.59961
441.672 4.67773
442.134 4.6582
442.596000000001 4.61914
443.058000000001 4.7168
443.52 4.6582
443.982 4.7168
444.444000000001 4.63867
444.906 4.6582
445.368 4.67773
445.830000000001 4.69727
446.292000000001 4.69727
446.754 4.69727
447.216 4.7168
447.678000000001 4.7168
448.14 4.75586
448.602 4.69727
449.064000000001 4.7168
449.526000000001 4.7168
449.988 4.69727
450.45 4.7168
450.912000000001 4.7168
451.374 4.81445
451.836 4.73633
452.298000000001 4.7168
452.760000000001 4.75586
453.222 4.77539
453.684000000001 4.7168
454.146000000001 4.73633
454.608 4.7168
455.07 4.77539
455.532000000001 4.87305
455.994 4.79492
456.456 4.75586
456.918000000001 4.79492
457.380000000001 4.75586
457.842 4.77539
458.304 4.7168
458.766000000001 4.77539
459.228 4.79492
459.69 4.73633
460.152000000001 4.73633
460.614000000001 4.83398
461.076 4.77539
461.538 4.75586
462.000000000001 4.77539
462.462 4.79492
462.924 4.73633
463.386000000001 4.79492
463.848 4.79492
464.31 4.79492
464.772000000001 4.85352
465.234000000001 4.81445
465.696 4.79492
466.158 4.79492
466.620000000001 4.73633
467.082 4.79492
467.544 4.75586
468.006000000001 4.75586
468.468000000001 4.83398
468.93 4.79492
469.392 4.87305
469.854000000001 4.85352
470.316 4.79492
470.778 4.85352
471.240000000001 4.75586
471.702000000001 4.81445
472.164 4.85352
472.626000000001 4.81445
473.088000000001 4.77539
473.55 4.85352
474.012 4.83398
474.474000000001 4.85352
474.936 4.87305
475.398 4.81445
475.860000000001 4.85352
476.322000000001 4.79492
476.784 4.81445
477.246 4.85352
477.708000000001 4.81445
478.17 4.81445
478.632 4.87305
479.094000000001 4.91211
479.556000000001 4.87305
480.018 4.83398
480.48 4.89258
480.942000000001 4.81445
481.404 4.91211
481.866 4.83398
482.328000000001 4.81445
482.79 4.81445
483.252 4.85352
483.714000000001 4.79492
484.176000000001 4.85352
484.638 4.93164
485.1 4.95117
485.562000000001 4.87305
486.024 4.91211
486.486 4.87305
486.948000000001 4.87305
487.410000000001 4.85352
487.872 4.89258
488.334 4.83398
488.796000000001 4.87305
489.258 4.83398
489.72 4.83398
490.182000000001 4.87305
490.644000000001 4.83398
491.106 4.89258
491.568 4.89258
492.030000000001 4.93164
492.492 4.89258
492.954 4.87305
493.416000000001 4.91211
493.878 4.93164
494.34 4.93164
494.802000000001 4.81445
495.264000000001 4.93164
495.726 4.87305
496.188 4.87305
496.650000000001 4.91211
497.112 4.89258
497.574 4.87305
498.036000000001 4.91211
498.498000000001 4.87305
498.96 4.89258
499.422 4.91211
499.884000000001 4.89258
500.346 4.93164
500.808 4.91211
501.270000000001 4.91211
501.732000000001 4.9707
502.194 4.95117
502.656000000001 5.00977
503.118000000001 4.93164
503.58 4.93164
504.042 4.93164
504.504000000001 4.87305
504.966 4.89258
505.428 4.87305
505.890000000001 4.87305
506.352000000001 4.89258
506.814 4.87305
507.276 4.91211
507.738000000001 4.83398
508.2 4.95117
508.662 4.93164
509.124000000001 4.95117
509.586000000001 4.89258
510.048 4.93164
510.51 4.87305
510.972000000001 4.91211
511.434 4.89258
511.896 4.95117
512.358000000001 4.95117
512.820000000001 4.87305
513.282 4.91211
513.744000000001 4.91211
514.206000000001 4.95117
514.668 4.95117
515.13 4.99023
515.592000000001 4.95117
516.054 4.81445
516.516 4.9707
516.978000000001 4.91211
517.440000000001 4.91211
517.902 4.93164
518.364 4.95117
518.826000000001 4.81445
519.288 4.95117
519.75 4.9707
520.212000000001 4.87305
520.674000000001 4.95117
521.136 4.95117
521.598 4.93164
522.060000000001 4.91211
522.522 4.95117
522.984 4.89258
523.446000000001 4.91211
523.908 4.91211
524.37 4.89258
524.832000000001 4.91211
525.294000000001 4.91211
525.756 4.95117
526.218 4.91211
526.680000000001 4.99023
527.142 4.83398
527.604 4.99023
528.066000000001 4.91211
528.528000000001 5.00977
528.99 4.93164
529.452 4.91211
529.914000000001 4.9707
530.376 4.89258
530.838 4.95117
531.300000000001 4.93164
531.762000000001 4.99023
532.224 4.95117
532.686 4.93164
533.148000000001 4.95117
533.61 4.93164
534.072 4.89258
534.534000000001 4.91211
534.996 5.00977
535.458 4.89258
535.920000000001 4.9707
536.382000000001 4.93164
536.844 4.9707
537.306 4.93164
537.768000000001 4.93164
538.23 4.85352
538.692 4.95117
539.154000000001 4.89258
539.616000000001 5.00977
540.078 4.93164
540.54 4.9707
541.002000000001 4.95117
541.464 4.99023
541.926 4.91211
542.388000000001 4.95117
542.85 4.89258
543.312 5.00977
543.774000000001 4.91211
544.236000000001 4.99023
544.698 4.9707
545.16 4.95117
545.622000000001 4.99023
546.084000000001 4.9707
546.546 4.95117
547.008000000001 4.9707
547.470000000001 4.99023
547.932 4.91211
548.394 4.87305
548.856000000001 4.95117
549.318 4.87305
549.78 4.95117
550.242000000001 4.99023
550.704000000001 4.93164
551.166 4.95117
551.628 4.99023
552.090000000001 4.93164
552.552 4.95117
553.014 4.93164
553.476000000001 4.91211
553.938 4.99023
554.4 5.00977
554.862000000001 4.99023
555.324000000001 4.95117
555.786 4.87305
556.248 4.95117
556.710000000001 4.93164
557.172 5.00977
557.634 4.89258
558.096000000001 4.93164
558.558000000001 4.91211
559.02 4.89258
559.482 4.91211
559.944000000001 4.87305
560.406 4.95117
560.868 4.95117
561.330000000001 4.87305
561.792 4.95117
562.254 4.91211
562.716 4.91211
563.178000000001 4.93164
563.64 4.9707
564.102 4.93164
564.564000000001 4.99023
565.026000000001 4.93164
565.488 4.99023
565.950000000001 4.89258
566.412000000001 5.0293
566.874 4.93164
567.336 4.93164
567.798000000001 4.87305
568.26 4.95117
568.722 4.91211
569.184000000001 4.9707
569.646000000001 4.95117
570.108 5.00977
570.57 4.91211
571.032000000001 5.00977
571.494 4.95117
571.956 4.93164
572.418000000001 4.99023
572.88 4.89258
573.342 4.95117
573.804000000001 5.00977
574.266000000001 4.93164
574.728 4.93164
575.19 4.95117
575.652000000001 4.9707
576.114 4.9707
576.576 4.9707
577.038000000001 4.93164
577.500000000001 4.95117
577.962 4.9707
578.424 4.93164
578.886000000001 5.0293
579.348 4.9707
579.81 4.95117
580.272000000001 4.95117
580.734 4.89258
581.196 4.95117
581.658 4.93164
582.120000000001 4.91211
582.582 5.00977
583.044 5.00977
583.506000000001 4.89258
583.968000000001 5.00977
584.43 4.9707
584.892000000001 4.95117
585.354000000001 4.91211
585.816 5.04883
586.278 4.93164
586.740000000001 4.95117
587.202 4.87305
587.664 4.95117
588.126000000001 4.93164
588.588000000001 4.91211
589.05 4.93164
589.512 5.00977
589.974000000001 5.00977
590.436 5.10742
590.898 5.04883
591.360000000001 5.00977
591.822000000001 4.9707
592.284 4.95117
592.746 4.93164
593.208000000001 4.87305
593.67 4.95117
594.132 5.00977
594.594000000001 4.9707
595.056 4.9707
595.518 4.9707
595.980000000001 4.9707
596.442000000001 4.99023
596.904 5.0293
597.366 4.95117
597.828000000001 4.99023
598.29 4.9707
598.752 5.00977
599.214000000001 4.9707
599.676 4.95117
600.138 4.91211
600.6 5.04883
601.062000000001 4.99023
601.524 5.00977
601.986 5.00977
602.448000000001 4.95117
602.910000000001 5.06836
603.372 4.9707
603.834000000001 4.93164
604.296000000001 5.00977
604.758 4.99023
605.22 5.04883
605.682000000001 4.93164
606.144 5.04883
606.606 5.0293
607.068000000001 4.95117
607.530000000001 4.95117
607.992 4.9707
608.454 4.99023
608.916000000001 5.00977
609.378 4.9707
609.84 5.04883
610.302000000001 4.99023
610.764000000001 5.00977
611.226 5.04883
611.688 4.95117
612.150000000001 5.00977
612.612 4.99023
613.074 4.9707
613.536000000001 4.99023
613.998000000001 5.04883
614.46 5.00977
614.922000000001 4.95117
615.384000000001 4.99023
615.846 5.00977
616.308 5.00977
616.770000000001 4.99023
617.232 5.0293
617.694 4.99023
618.156000000001 5.0293
618.618000000001 4.99023
619.08 5.00977
619.542 4.9707
620.004000000001 4.9707
620.466 5.08789
620.928 4.9707
621.390000000001 5.00977
621.852000000001 5.00977
622.314 4.93164
622.776 4.99023
623.238000000001 5.04883
623.7 4.9707
624.162 4.99023
624.624000000001 5.00977
625.086 4.95117
625.548 5.00977
626.010000000001 4.99023
626.472000000001 5.0293
626.934 4.9707
627.396 5.00977
627.858000000001 4.9707
628.32 5.00977
628.782 4.99023
629.244000000001 5.00977
629.706000000001 5.00977
630.168 5.0293
630.63 5.04883
631.092000000001 4.95117
631.554 4.9707
632.016 4.9707
632.478000000001 5.0293
632.940000000001 5.00977
633.402 4.99023
633.864000000001 5.00977
634.326000000001 4.99023
634.788 4.95117
635.25 4.9707
635.712000000001 5.06836
636.174 4.95117
636.636 4.9707
637.098000000001 4.99023
637.560000000001 4.99023
638.022 5.0293
638.484 4.9707
638.946000000001 4.95117
639.408 5.0293
639.87 5.00977
640.332000000001 4.99023
640.794000000001 5.04883
641.256 5.04883
641.718 4.95117
642.180000000001 4.99023
642.642 5.00977
643.104 4.99023
643.566000000001 4.99023
644.028 4.95117
644.49 5.00977
644.952000000001 4.95117
645.414000000001 4.99023
645.876 5.00977
646.338 4.9707
646.800000000001 4.9707
647.262 5.0293
647.724 4.99023
648.186000000001 5.00977
648.648000000001 5.04883
649.11 5.00977
649.572 4.9707
650.034000000001 4.93164
650.496 4.99023
650.958 4.99023
651.420000000001 5.0293
651.882000000001 4.95117
652.344 5.00977
652.806 4.9707
653.268000000001 4.9707
653.73 4.99023
654.192 4.99023
654.654000000001 4.99023
655.116 5.04883
655.578 4.99023
656.040000000001 4.95117
656.502000000001 5.00977
656.964 5.0293
657.426 4.9707
657.888000000001 4.95117
658.35 5.0293
658.812 5.0293
659.274000000001 4.9707
659.736000000001 5.0293
660.198 5.00977
660.66 4.95117
661.122000000001 4.99023
661.584 5.0293
662.046 5.04883
662.508000000001 4.95117
662.97 4.99023
663.432 4.9707
663.894000000001 5.0293
664.356000000001 5.0293
664.818 5.0293
665.28 5.04883
665.742000000001 4.9707
666.204 4.95117
666.666 4.99023
667.128000000001 4.9707
667.590000000001 4.95117
668.052 5.04883
668.514 4.9707
668.976000000001 4.95117
669.438 4.9707
669.9 4.95117
670.362000000001 4.9707
670.824000000001 5.00977
671.286 5.00977
671.748 5.00977
672.210000000001 5.0293
672.672 4.9707
673.134 4.99023
673.596000000001 4.9707
674.058 5.00977
674.52 5.00977
674.982000000001 4.99023
675.444000000001 4.99023
675.906 4.9707
676.368 4.99023
676.830000000001 4.9707
677.292 4.99023
677.754 4.9707
678.216000000001 4.95117
678.678000000001 4.95117
679.14 4.99023
679.602 4.9707
680.064000000001 5.04883
680.526 4.95117
680.988 4.99023
681.450000000001 4.9707
681.912 5.00977
682.374 5.00977
682.836 4.99023
683.298000000001 4.9707
683.76 4.95117
684.222 4.9707
684.684000000001 4.9707
685.146000000001 5.00977
685.608 5.0293
686.070000000001 4.99023
686.532000000001 4.99023
686.994 4.95117
687.456 4.9707
687.918000000001 5.0293
688.38 5.0293
688.842 4.9707
689.304000000001 4.99023
689.766000000001 5.00977
690.228 5.0293
690.69 4.99023
691.152000000001 4.9707
691.614 4.9707
692.076 4.9707
692.538000000001 4.95117
693 5.06836
693.462 4.9707
693.924000000001 4.95117
694.386000000001 4.93164
694.848 5.04883
695.31 4.95117
695.772000000001 4.91211
696.234 4.9707
696.696 4.99023
697.158000000001 4.9707
697.620000000001 4.95117
698.082 4.9707
698.544 4.9707
699.006000000001 4.99023
699.468 4.95117
699.93 4.9707
700.392000000001 5.00977
700.854 4.93164
701.316 5.04883
701.778 5.00977
702.240000000001 5.00977
702.702 4.95117
703.164 4.9707
703.626000000001 4.9707
704.088000000001 5.0293
704.55 4.95117
705.012000000001 4.95117
705.474000000001 4.93164
705.936 4.95117
706.398 4.93164
706.860000000001 4.93164
707.322 4.95117
707.784 5.00977
708.246000000001 4.99023
708.708000000001 5.04883
709.17 5.00977
709.632 4.9707
710.094000000001 4.99023
710.556 4.95117
711.018 4.9707
711.480000000001 5.00977
711.942 4.95117
712.404 4.95117
712.866 4.9707
713.328000000001 5.00977
713.79 4.93164
714.252 4.9707
714.714000000001 5.04883
715.176 4.99023
715.638 4.99023
716.100000000001 5.00977
716.562000000001 4.9707
717.024 4.9707
717.486 4.99023
717.948000000001 4.99023
718.41 4.95117
718.872 4.91211
719.334000000001 4.89258
719.796000000001 4.93164
720.258 4.93164
720.72 4.9707
721.182000000001 4.93164
721.644 4.99023
722.106 4.99023
722.568000000001 4.95117
723.030000000001 4.93164
723.492 4.9707
723.954000000001 4.9707
724.416000000001 4.9707
724.878 4.93164
725.34 4.99023
725.802000000001 4.93164
726.264 5.0293
726.726 4.93164
727.188000000001 5.04883
727.650000000001 4.91211
728.112 5.00977
728.574 4.95117
729.036000000001 4.95117
729.498 4.95117
729.96 4.95117
730.422000000001 4.9707
730.884000000001 5.0293
731.346 4.89258
731.808 4.95117
732.270000000001 4.99023
732.732 5.00977
733.194 4.95117
733.656000000001 4.91211
734.118000000001 4.99023
734.58 4.89258
735.042000000001 4.99023
735.504000000001 4.93164
735.966 4.91211
736.428 5.04883
736.890000000001 4.99023
737.352 4.91211
737.814 4.99023
738.276000000001 4.9707
738.738000000001 4.93164
739.2 4.9707
739.662 4.91211
740.124000000001 4.95117
740.586 4.9707
741.048 4.99023
741.510000000001 4.93164
741.972000000001 4.95117
742.434 4.95117
742.896 5.00977
743.358000000001 4.95117
743.82 4.93164
744.282 4.99023
744.744000000001 4.91211
745.206 5.00977
745.668 4.99023
746.130000000001 4.9707
746.592000000001 4.95117
747.054 4.93164
747.516 4.91211
747.978000000001 4.87305
748.44 4.91211
748.902 4.91211
749.364000000001 4.9707
749.826000000001 4.9707
750.288 4.93164
750.75 4.9707
751.212000000001 4.95117
751.674 4.93164
752.136 4.89258
752.598000000001 4.99023
753.060000000001 4.93164
753.522 4.89258
753.984000000001 4.9707
754.446000000001 4.95117
754.908 4.9707
755.37 4.99023
755.832000000001 4.95117
756.294 5.00977
756.756 4.91211
757.218000000001 4.95117
757.680000000001 4.95117
758.142 4.91211
758.604 4.93164
759.066000000001 4.93164
759.528 4.93164
759.99 4.93164
760.452000000001 4.95117
760.914000000001 4.99023
761.376 4.95117
761.838 4.93164
762.300000000001 4.93164
762.762 4.91211
763.224 4.91211
763.686000000001 4.95117
764.148 4.91211
764.61 4.99023
765.072000000001 4.95117
765.534000000001 4.93164
765.996 4.99023
766.458 4.91211
766.920000000001 4.95117
767.382 4.93164
767.844 4.91211
768.306000000001 4.93164
768.768000000001 4.93164
769.23 4.9707
769.692 4.9707
770.154000000001 4.95117
770.616 4.91211
771.078 4.87305
771.540000000001 4.89258
772.002000000001 4.99023
772.464 4.91211
772.926 4.93164
773.388000000001 5.0293
773.85 4.91211
774.312 4.93164
774.774000000001 4.9707
775.236 4.95117
775.698 4.99023
776.160000000001 4.93164
776.622000000001 4.83398
777.084 4.95117
777.546 4.93164
778.008000000001 4.9707
778.47 4.91211
778.932 4.95117
779.394000000001 4.89258
779.856000000001 4.95117
780.318 4.93164
780.78 4.91211
781.242000000001 4.93164
781.704 4.95117
782.166 4.93164
782.628000000001 4.95117
783.09 4.93164
783.552 4.91211
784.014000000001 4.93164
784.476000000001 4.89258
784.938 4.99023
785.4 4.93164
785.862000000001 4.93164
786.324000000001 4.87305
786.786 4.95117
787.248000000001 4.95117
787.710000000001 4.93164
788.172 4.93164
788.634 4.93164
789.096000000001 4.9707
789.558 4.87305
790.02 4.9707
790.482000000001 4.95117
790.944000000001 4.89258
791.406 4.99023
791.868 4.91211
792.330000000001 4.91211
792.792 4.93164
793.254 4.99023
793.716000000001 4.91211
794.178 4.87305
794.64 4.89258
795.102000000001 4.85352
795.564000000001 4.91211
796.026 4.89258
796.488 4.91211
796.950000000001 4.93164
797.412 4.9707
797.874 4.91211
798.336000000001 4.95117
798.798000000001 4.89258
799.26 4.93164
799.722 4.91211
800.184000000001 4.95117
800.646 4.89258
801.108 5.00977
801.570000000001 4.91211
802.032 4.95117
802.494 4.89258
802.956 4.9707
803.418000000001 4.91211
803.88 4.95117
804.342 4.89258
804.804000000001 4.93164
805.266000000001 4.93164
805.728 4.9707
806.190000000001 4.89258
806.652000000001 4.91211
807.114 4.87305
807.576 4.95117
808.038000000001 4.91211
808.5 4.93164
808.962 4.91211
809.424000000001 4.91211
809.886000000001 4.89258
810.348 4.91211
810.81 4.89258
811.272000000001 4.89258
811.734 4.91211
812.196 4.95117
812.658000000001 4.9707
813.12 4.91211
813.582 4.93164
814.044000000001 4.93164
814.506000000001 4.85352
814.968 4.95117
815.43 4.99023
815.892000000001 4.91211
816.354 4.93164
816.816 4.91211
817.278000000001 4.9707
817.740000000001 4.93164
818.202 4.93164
818.664 4.91211
819.126000000001 4.95117
819.588 4.91211
820.05 4.93164
820.512000000001 4.89258
820.974000000001 4.93164
821.436 4.95117
821.898 4.93164
822.360000000001 4.93164
822.822 4.87305
823.284 4.95117
823.746000000001 4.87305
824.208000000001 5.00977
824.67 4.93164
825.132000000001 4.83398
825.594000000001 4.93164
826.056 4.87305
826.518 4.93164
826.980000000001 4.87305
827.442 4.87305
827.904 4.87305
828.366000000001 4.93164
828.828000000001 4.89258
829.29 4.93164
829.752 4.89258
830.214000000001 4.87305
830.676 4.89258
831.138 4.89258
831.600000000001 4.95117
832.062000000001 4.85352
832.524 4.93164
832.986 4.83398
833.448000000001 4.85352
833.91 4.89258
834.372 4.89258
834.834000000001 4.83398
835.296000000001 4.89258
835.758 4.87305
836.220000000001 4.93164
836.682000000001 4.91211
837.144 4.87305
837.606 4.83398
838.068000000001 4.89258
838.53 4.93164
838.992 4.93164
839.454000000001 4.87305
839.916000000001 4.95117
840.378 4.95117
840.84 4.95117
841.302000000001 4.93164
841.764 4.91211
842.226 4.87305
842.688000000001 4.87305
843.150000000001 4.91211
843.612 4.87305
844.074000000001 4.87305
844.536000000001 4.91211
844.998 4.93164
845.46 4.95117
845.922000000001 4.89258
846.384 4.9707
846.846 4.87305
847.308000000001 4.83398
847.770000000001 4.93164
848.232 4.93164
848.694 4.85352
849.156000000001 4.89258
849.618 4.87305
850.08 4.87305
850.542000000001 4.93164
851.004000000001 4.89258
851.466 4.83398
851.928 4.91211
852.390000000001 4.87305
852.852 4.91211
853.314 4.87305
853.776000000001 4.87305
854.238000000001 4.89258
854.7 4.87305
855.162000000001 4.99023
855.624000000001 4.87305
856.086 4.87305
856.548 4.87305
857.010000000001 4.85352
857.472 4.87305
857.934 4.93164
858.396000000001 4.91211
858.858000000001 4.93164
859.32 4.89258
859.782 4.81445
860.244000000001 4.89258
860.706 4.93164
861.168 4.91211
861.630000000001 4.87305
862.092000000001 4.89258
862.554 4.93164
863.016 4.87305
863.478000000001 4.91211
863.94 4.95117
864.402 4.87305
864.864000000001 4.93164
865.326 4.85352
865.788 4.89258
866.250000000001 4.91211
866.712000000001 4.87305
867.174 4.89258
867.636 4.89258
868.098000000001 4.83398
868.56 4.87305
869.022 4.81445
869.484000000001 4.95117
869.946000000001 4.93164
870.408 4.87305
870.87 4.85352
871.332000000001 4.91211
871.794 4.93164
872.256 4.89258
872.718000000001 4.87305
873.180000000001 4.87305
873.642 4.85352
874.104000000001 4.87305
874.566000000001 4.87305
875.028 4.89258
875.49 4.85352
875.952000000001 4.93164
876.414 4.81445
876.876 4.93164
877.338000000001 4.91211
877.800000000001 4.87305
878.262 4.89258
878.724 4.85352
879.186000000001 4.93164
879.648 4.93164
880.11 4.99023
880.572000000001 4.85352
881.034000000001 4.89258
881.496 4.91211
881.958 4.87305
882.420000000001 4.83398
882.882 4.87305
883.344 4.85352
883.806000000001 4.87305
884.268 4.95117
884.73 4.85352
885.192000000001 4.87305
885.654000000001 4.89258
886.116 4.85352
886.578 4.87305
887.040000000001 4.89258
887.502 4.83398
887.964 4.85352
888.426000000001 4.89258
888.888000000001 4.87305
889.35 4.87305
889.812 4.89258
890.274000000001 4.83398
890.736 4.89258
891.198 4.87305
891.660000000001 4.93164
892.122000000001 4.83398
892.584 4.87305
893.046 4.91211
893.508000000001 4.87305
893.97 4.85352
894.432 4.87305
894.894000000001 4.93164
895.356 4.91211
895.818 4.93164
896.280000000001 4.87305
896.742000000001 4.87305
897.204 4.89258
897.666 4.91211
898.128000000001 4.87305
898.59 4.93164
899.052 4.87305
899.514000000001 4.89258
899.976000000001 4.87305
900.438 4.89258
900.9 4.91211
901.362000000001 4.85352
901.824 4.95117
902.286 4.87305
902.748000000001 4.85352
903.21 4.85352
903.672 4.81445
904.134 4.91211
904.596000000001 4.95117
905.058 4.87305
905.52 4.87305
905.982000000001 4.83398
906.444 4.83398
906.906 4.87305
907.368000000001 4.87305
907.830000000001 4.83398
908.292 4.87305
908.754 4.89258
909.216000000001 4.87305
909.678 4.85352
910.14 4.83398
910.602000000001 4.83398
911.064000000001 4.85352
911.526 4.91211
911.988 4.91211
912.450000000001 4.85352
912.912 4.85352
913.374 4.93164
913.836000000001 4.85352
914.298 4.73633
914.76 4.89258
915.222000000001 4.89258
915.684000000001 4.87305
916.146 4.85352
916.608 4.87305
917.070000000001 4.85352
917.532 4.83398
917.994 4.87305
918.456000000001 4.83398
918.918000000001 4.87305
919.38 4.93164
919.842 4.81445
920.304000000001 4.87305
920.766 4.87305
921.228 4.85352
921.690000000001 4.87305
922.152 4.87305
922.614 4.79492
923.076 4.87305
923.538000000001 4.87305
};
\addplot [semithick, darkorange25512714]
table {%
0 1.20117
0.462000000000629 1.16211
0.924000000000369 1.2207
1.38600000000011 1.16211
1.84800000000074 1.2207
2.31000000000048 1.2207
2.77200000000022 1.20117
3.23400000000085 1.18164
3.69600000000059 1.25977
4.15800000000033 1.18164
4.62000000000007 1.14258
5.0820000000007 1.2207
5.54400000000044 1.2207
6.00600000000018 1.20117
6.46800000000081 1.25977
6.93000000000055 1.20117
7.39200000000029 1.12305
7.85400000000003 1.24023
8.31600000000066 1.25977
8.7780000000004 1.16211
9.24000000000014 1.20117
9.70200000000077 1.2207
10.1640000000005 1.16211
10.6260000000002 1.14258
11.0880000000009 1.16211
11.5500000000006 1.18164
12.0120000000004 1.16211
12.4740000000001 1.24023
12.9360000000007 1.20117
13.3980000000005 1.18164
13.8600000000002 1.24023
14.3220000000008 1.20117
14.7840000000006 1.16211
15.2460000000003 1.20117
15.7080000000001 1.20117
16.1700000000007 1.24023
16.6320000000004 1.2207
17.0940000000002 1.18164
17.5560000000008 1.2207
18.0180000000005 1.10352
18.4800000000003 1.25977
18.942 1.20117
19.4040000000006 1.16211
19.8660000000004 1.14258
20.3280000000001 1.24023
20.7900000000008 1.25977
21.2520000000005 1.2207
21.7140000000002 1.12305
22.1760000000009 1.20117
22.6380000000006 1.16211
23.1000000000003 1.2207
23.5620000000001 1.2207
24.0240000000007 1.25977
24.4860000000005 1.24023
24.9480000000002 1.25977
25.4100000000008 1.18164
25.8720000000006 1.24023
26.3340000000003 1.2207
26.796 1.10352
27.2580000000007 1.24023
27.7200000000004 1.24023
28.1820000000002 1.16211
28.6440000000008 1.25977
29.1060000000005 1.20117
29.5680000000003 1.2207
30.03 1.2207
30.4920000000006 1.2207
30.9540000000004 1.24023
31.4160000000001 1.18164
31.8780000000007 1.20117
32.3400000000005 1.20117
32.8020000000002 1.20117
33.2640000000008 1.2207
33.7260000000006 1.20117
34.1880000000003 1.24023
34.6500000000001 1.18164
35.1120000000007 1.24023
35.5740000000004 1.2207
36.0360000000002 1.16211
36.4980000000008 1.2207
36.9600000000005 1.24023
37.4220000000003 1.2207
37.884 1.16211
38.3460000000007 1.18164
38.8080000000004 1.16211
39.2700000000001 1.20117
39.7320000000008 1.2207
40.1940000000005 1.2207
40.6560000000002 1.2207
41.1180000000009 1.16211
41.5800000000006 1.12305
42.0420000000004 1.2207
42.5040000000001 1.20117
42.9660000000007 1.20117
43.4280000000005 1.20117
43.8900000000002 1.2207
44.3520000000008 1.24023
44.8140000000006 1.25977
45.2760000000003 1.2793
45.7380000000001 1.16211
46.2000000000007 1.24023
46.6620000000004 1.25977
47.1240000000002 1.20117
47.5860000000008 1.2207
48.0480000000005 1.24023
48.5100000000003 1.18164
48.972 1.14258
49.4340000000006 1.20117
49.8960000000004 1.24023
50.3580000000001 1.25977
50.8200000000008 1.14258
51.2820000000005 1.18164
51.7440000000002 1.2793
52.2060000000009 1.16211
52.6680000000006 1.2207
53.1300000000003 1.2207
53.5920000000001 1.24023
54.0540000000007 1.2207
54.5160000000005 1.14258
54.9780000000002 1.24023
55.4400000000008 1.18164
55.9020000000006 1.2207
56.3640000000003 1.18164
56.826 1.16211
57.2880000000007 1.24023
57.7500000000004 1.25977
58.2120000000002 1.2207
58.6740000000008 1.16211
59.1360000000005 1.25977
59.5980000000003 1.16211
60.06 1.12305
60.5220000000006 1.24023
60.9840000000004 1.20117
61.4460000000001 1.16211
61.9080000000007 1.20117
62.3700000000005 1.25977
62.8320000000002 1.18164
63.2940000000008 1.20117
63.7560000000006 1.25977
64.2180000000003 1.18164
64.6800000000001 1.2207
65.1420000000007 1.2207
65.6040000000004 1.25977
66.0660000000002 1.14258
66.5280000000008 1.16211
66.9900000000005 1.20117
67.4520000000003 1.2207
67.914 1.2207
68.3760000000007 1.2207
68.8380000000004 1.18164
69.3000000000001 1.24023
69.7620000000008 1.12305
70.2240000000005 1.16211
70.6860000000002 1.24023
71.1480000000009 1.25977
71.6100000000006 1.16211
72.0720000000004 1.24023
72.5340000000001 1.16211
72.9960000000007 1.16211
73.4580000000005 1.2207
73.9200000000002 1.14258
74.3820000000008 1.2207
74.8440000000006 1.20117
75.3060000000003 1.25977
75.7680000000001 1.16211
76.2300000000007 1.14258
76.6920000000004 1.2207
77.1540000000002 1.2207
77.6160000000008 1.16211
78.0780000000005 1.16211
78.5400000000003 1.2207
79.002 1.2207
79.4640000000007 1.25977
79.9260000000004 1.20117
80.3880000000001 1.25977
80.8500000000008 1.20117
81.3120000000005 1.2207
81.7740000000002 1.2207
82.2360000000009 1.25977
82.6980000000006 1.18164
83.1600000000003 1.25977
83.6220000000001 1.16211
84.0840000000007 1.24023
84.5460000000004 1.25977
85.0080000000002 1.2207
85.4700000000008 1.25977
85.9320000000006 1.16211
86.3940000000003 1.16211
86.8560000000001 1.18164
87.3180000000007 1.20117
87.7800000000004 1.16211
88.2420000000002 1.16211
88.7040000000008 1.24023
89.1660000000005 1.20117
89.6280000000003 1.25977
90.09 1.20117
90.5520000000006 1.16211
91.0140000000004 1.24023
91.4760000000001 1.18164
91.9380000000007 1.16211
92.4000000000005 1.12305
92.8620000000002 1.10352
93.3240000000009 1.25977
93.7860000000006 1.2207
94.2480000000003 1.20117
94.7100000000001 1.2207
95.1720000000007 1.2207
95.6340000000004 1.24023
96.0960000000002 1.16211
96.5580000000008 1.14258
97.0200000000006 1.2207
97.4820000000003 1.16211
97.944 1.16211
98.4060000000007 1.2207
98.8680000000004 1.18164
99.3300000000001 1.2207
99.7920000000008 1.12305
100.254000000001 1.12305
100.716 1.14258
101.178000000001 1.16211
101.640000000001 1.2793
102.102 1.18164
102.564 1.25977
103.026000000001 1.20117
103.488 1.2207
103.95 1.20117
104.412000000001 1.16211
104.874000000001 1.16211
105.336 1.16211
105.798 1.24023
106.260000000001 1.18164
106.722 1.18164
107.184 1.2793
107.646000000001 1.2207
108.108000000001 1.25977
108.57 1.16211
109.032 1.16211
109.494000000001 1.2207
109.956 1.18164
110.418 1.2207
110.880000000001 1.18164
111.342 1.20117
111.804 1.24023
112.266000000001 1.16211
112.728000000001 1.20117
113.19 1.24023
113.652 1.2207
114.114000000001 1.16211
114.576 1.20117
115.038 1.2207
115.500000000001 1.2207
115.962000000001 1.16211
116.424 1.25977
116.886 1.16211
117.348000000001 1.20117
117.81 1.18164
118.272 1.16211
118.734000000001 1.16211
119.196000000001 1.16211
119.658 1.20117
120.12 1.16211
120.582000000001 1.25977
121.044 1.2207
121.506 1.16211
121.968000000001 1.25977
122.43 1.16211
122.892 1.2207
123.354000000001 1.20117
123.816000000001 1.14258
124.278 1.24023
124.74 1.20117
125.202000000001 1.24023
125.664 1.18164
126.126 1.20117
126.588000000001 1.16211
127.050000000001 1.14258
127.512 1.2207
127.974 1.2207
128.436000000001 1.2207
128.898 1.18164
129.36 1.20117
129.822000000001 1.2207
130.284000000001 1.16211
130.746 1.24023
131.208000000001 1.16211
131.670000000001 1.20117
132.132 1.2207
132.594 1.16211
133.056000000001 1.18164
133.518 1.20117
133.98 1.2793
134.442000000001 1.2207
134.904000000001 1.12305
135.366 1.18164
135.828 1.25977
136.290000000001 1.20117
136.752 1.24023
137.214 1.2207
137.676000000001 1.2207
138.138000000001 1.16211
138.6 1.20117
139.062 1.24023
139.524000000001 1.18164
139.986 1.24023
140.448 1.18164
140.910000000001 1.16211
141.372 1.2793
141.834 1.18164
142.296000000001 1.2207
142.758000000001 1.16211
143.22 1.20117
143.682 1.20117
144.144000000001 1.25977
144.606 1.18164
145.068 1.20117
145.530000000001 1.20117
145.992000000001 1.16211
146.454 1.14258
146.916 1.24023
147.378000000001 1.14258
147.84 1.18164
148.302 1.20117
148.764000000001 1.24023
149.226000000001 1.14258
149.688 1.20117
150.15 1.24023
150.612000000001 1.20117
151.074 1.20117
151.536 1.16211
151.998000000001 1.20117
152.46 1.2207
152.922 1.18164
153.384000000001 1.25977
153.846000000001 1.20117
154.308 1.2207
154.77 1.16211
155.232000000001 1.16211
155.694 1.2207
156.156 1.2207
156.618000000001 1.20117
157.080000000001 1.16211
157.542 1.16211
158.004 1.24023
158.466000000001 1.18164
158.928 1.18164
159.39 1.20117
159.852000000001 1.24023
160.314000000001 1.18164
160.776 1.16211
161.238000000001 1.18164
161.700000000001 1.25977
162.162 1.10352
162.624 1.16211
163.086000000001 1.20117
163.548 1.24023
164.01 1.16211
164.472000000001 1.16211
164.934000000001 1.18164
165.396 1.18164
165.858 1.18164
166.320000000001 1.24023
166.782 1.12305
167.244 1.25977
167.706000000001 1.2207
168.168000000001 1.14258
168.63 1.16211
169.092 1.2207
169.554000000001 1.2207
170.016 1.25977
170.478 1.14258
170.940000000001 1.20117
171.402 1.16211
171.864 1.24023
172.326000000001 1.24023
172.788000000001 1.2207
173.25 1.20117
173.712 1.2207
174.174000000001 1.2207
174.636 1.16211
175.098 1.14258
175.560000000001 1.20117
176.022000000001 1.2207
176.484 1.25977
176.946 1.24023
177.408000000001 1.2207
177.87 1.18164
178.332 1.16211
178.794000000001 1.2207
179.256000000001 1.20117
179.718 1.24023
180.18 1.20117
180.642000000001 1.16211
181.104 1.18164
181.566 1.14258
182.028000000001 1.2207
182.49 1.18164
182.952 1.20117
183.414000000001 1.18164
183.876000000001 1.16211
184.338 1.24023
184.8 1.18164
185.262000000001 1.16211
185.724 1.24023
186.186 1.16211
186.648000000001 1.16211
187.110000000001 1.20117
187.572 1.14258
188.034 1.20117
188.496000000001 1.16211
188.958 1.25977
189.42 1.18164
189.882000000001 1.16211
190.344000000001 1.25977
190.806 1.20117
191.268 1.16211
191.730000000001 1.18164
192.192 1.2207
192.654 1.18164
193.116000000001 1.2207
193.578 1.20117
194.04 1.20117
194.502000000001 1.16211
194.964000000001 1.16211
195.426 1.18164
195.888 1.18164
196.350000000001 1.25977
196.812 1.2207
197.274 1.2207
197.736000000001 1.2207
198.198000000001 1.16211
198.66 1.25977
199.122 1.24023
199.584000000001 1.2207
200.046 1.2793
200.508 1.20117
200.970000000001 1.20117
201.432 1.2207
201.894 1.24023
202.356000000001 1.20117
202.818000000001 1.16211
203.28 1.18164
203.742 1.2207
204.204000000001 1.2207
204.666 1.2207
205.128 1.18164
205.590000000001 1.16211
206.052000000001 1.18164
206.514 1.18164
206.976 1.2207
207.438000000001 1.2207
207.9 1.20117
208.362 1.16211
208.824000000001 1.20117
209.286000000001 1.16211
209.748 1.2207
210.21 1.2207
210.672000000001 1.16211
211.134 1.18164
211.596 1.16211
212.058000000001 1.20117
212.52 1.24023
212.982 1.2207
213.444000000001 1.14258
213.906000000001 1.20117
214.368 1.2207
214.83 1.24023
215.292000000001 1.16211
215.754 1.16211
216.216 1.24023
216.678000000001 1.25977
217.140000000001 1.18164
217.602 1.2207
218.064 1.20117
218.526000000001 1.18164
218.988 1.2207
219.45 1.16211
219.912000000001 1.2207
220.374000000001 1.12305
220.836 1.2207
221.298 1.18164
221.760000000001 1.24023
222.222 1.20117
222.684 1.24023
223.146000000001 1.2207
223.608 1.2207
224.07 1.25977
224.532000000001 1.24023
224.994000000001 1.14258
225.456 1.16211
225.918 1.2207
226.380000000001 1.16211
226.842 1.2207
227.304 1.24023
227.766000000001 1.14258
228.228000000001 1.2207
228.69 1.18164
229.152 1.25977
229.614000000001 1.2207
230.076 1.24023
230.538 1.18164
231.000000000001 1.16211
231.462000000001 1.16211
231.924 1.2207
232.386000000001 1.2207
232.848000000001 1.2207
233.31 1.18164
233.772 1.24023
234.234000000001 1.18164
234.696 1.20117
235.158 1.18164
235.620000000001 1.16211
236.082000000001 1.2207
236.544 1.16211
237.006 1.2207
237.468000000001 1.2793
237.93 1.24023
238.392 1.24023
238.854000000001 1.14258
239.316000000001 1.2207
239.778 1.16211
240.24 1.2207
240.702000000001 1.18164
241.164 1.2207
241.626 1.18164
242.088000000001 1.18164
242.55 1.20117
243.012 1.2207
243.474000000001 1.2207
243.936000000001 1.20117
244.398 1.24023
244.86 1.29883
245.322000000001 1.2207
245.784 1.24023
246.246 1.24023
246.708000000001 1.20117
247.170000000001 1.2207
247.632 1.20117
248.094 1.16211
248.556000000001 1.20117
249.018 1.2207
249.48 1.25977
249.942000000001 1.18164
250.404000000001 1.2207
250.866 1.25977
251.328 1.2207
251.790000000001 1.2207
252.252 1.24023
252.714 1.25977
253.176000000001 1.2207
253.638 1.18164
254.1 1.16211
254.562000000001 1.16211
255.024000000001 1.2207
255.486 1.14258
255.948 1.14258
256.410000000001 1.2207
256.872 1.24023
257.334 1.18164
257.796000000001 1.25977
258.258000000001 1.16211
258.72 1.2207
259.182 1.16211
259.644000000001 1.2207
260.106 1.20117
260.568 1.20117
261.030000000001 1.14258
261.492000000001 1.20117
261.954 1.18164
262.416000000001 1.2207
262.878000000001 1.18164
263.34 1.2207
263.802 1.20117
264.264000000001 1.25977
264.726 1.2207
265.188 1.2793
265.650000000001 1.20117
266.112000000001 1.2207
266.574 1.18164
267.036 1.12305
267.498000000001 1.2207
267.96 1.2207
268.422 1.14258
268.884000000001 1.2207
269.346000000001 1.2207
269.808 1.2207
270.27 1.20117
270.732000000001 1.18164
271.194 1.16211
271.656 1.2207
272.118000000001 1.18164
272.58 1.18164
273.042 1.2207
273.504000000001 1.14258
273.966000000001 1.16211
274.428 1.20117
274.89 1.2207
275.352000000001 1.24023
275.814 1.18164
276.276 1.16211
276.738000000001 1.16211
277.200000000001 1.2793
277.662 1.2207
278.124 1.25977
278.586000000001 1.25977
279.048 1.2207
279.51 1.18164
279.972000000001 1.25977
280.434000000001 1.2207
280.896 1.24023
281.358 1.25977
281.820000000001 1.16211
282.282 1.24023
282.744 1.2207
283.206000000001 1.14258
283.668 1.2207
284.13 1.2207
284.592000000001 1.25977
285.054000000001 1.2207
285.516 1.16211
285.978 1.2207
286.440000000001 1.25977
286.902 1.20117
287.364 1.2207
287.826000000001 1.2207
288.288000000001 1.2793
288.75 1.18164
289.212 1.20117
289.674000000001 1.16211
290.136 1.24023
290.598 1.2207
291.060000000001 1.16211
291.522000000001 1.16211
291.984 1.16211
292.446000000001 1.2207
292.908000000001 1.14258
293.37 1.20117
293.832 1.24023
294.294000000001 1.20117
294.756 1.16211
295.218 1.20117
295.680000000001 1.2207
296.142000000001 1.2207
296.604 1.18164
297.066 1.2207
297.528000000001 1.16211
297.99 1.18164
298.452 1.20117
298.914000000001 1.18164
299.376000000001 1.25977
299.838 1.2207
300.3 1.25977
300.762000000001 1.2207
301.224 4.85352
301.686 4.91211
302.148000000001 4.89258
302.61 4.81445
303.072 4.81445
303.534000000001 4.93164
303.996000000001 4.87305
304.458 4.91211
304.92 4.81445
305.382000000001 4.81445
305.844 4.81445
306.306 4.87305
306.768000000001 4.87305
307.230000000001 4.93164
307.692 4.91211
308.154 4.83398
308.616000000001 4.93164
309.078 4.83398
309.54 4.77539
310.002000000001 4.87305
310.464000000001 4.85352
310.926 4.93164
311.388 4.87305
311.850000000001 4.83398
312.312 4.93164
312.774 4.85352
313.236000000001 4.85352
313.698 4.81445
314.16 4.79492
314.622000000001 4.85352
315.084000000001 4.91211
315.546 4.87305
316.008 4.87305
316.470000000001 4.83398
316.932 4.93164
317.394 4.93164
317.856000000001 4.87305
318.318000000001 4.87305
318.78 4.91211
319.242 4.79492
319.704000000001 4.91211
320.166 4.85352
320.628 4.83398
321.090000000001 4.85352
321.552 4.87305
322.014 4.93164
322.476000000001 4.83398
322.938000000001 4.85352
323.4 4.89258
323.862 4.89258
324.324000000001 4.89258
324.786 4.83398
325.248 4.83398
325.710000000001 4.85352
326.172000000001 4.87305
326.634 4.83398
327.096 4.85352
327.558000000001 4.87305
328.02 4.81445
328.482 4.87305
328.944000000001 4.81445
329.406000000001 4.81445
329.868 4.89258
330.33 4.79492
330.792000000001 4.89258
331.254 4.87305
331.716 4.85352
332.178000000001 4.83398
332.64 4.87305
333.102 4.87305
333.564000000001 4.81445
334.026000000001 4.87305
334.488 4.95117
334.95 4.79492
335.412000000001 4.81445
335.874 4.91211
336.336 4.83398
336.798000000001 4.89258
337.260000000001 4.85352
337.722 4.83398
338.184 4.89258
338.646000000001 4.81445
339.108 4.85352
339.57 4.87305
340.032000000001 4.83398
340.494000000001 4.79492
340.956 4.89258
341.418 4.87305
341.880000000001 4.87305
342.342 4.87305
342.804 4.87305
343.266000000001 4.83398
343.728 4.85352
344.19 4.91211
344.652000000001 4.85352
345.114000000001 4.83398
345.576 4.87305
346.038 4.89258
346.500000000001 4.87305
346.962 4.85352
347.424 4.87305
347.886000000001 4.83398
348.348000000001 4.91211
348.81 4.89258
349.272 4.85352
349.734000000001 4.87305
350.196 4.89258
350.658 4.87305
351.120000000001 4.91211
351.582000000001 4.87305
352.044 4.87305
352.506000000001 4.79492
352.968000000001 4.81445
353.43 4.89258
353.892 4.91211
354.354000000001 4.89258
354.816 4.87305
355.278 4.81445
355.740000000001 4.87305
356.202000000001 4.79492
356.664 4.91211
357.126 4.79492
357.588000000001 4.83398
358.05 4.83398
358.512 4.83398
358.974000000001 4.89258
359.436000000001 4.83398
359.898 4.81445
360.36 4.87305
360.822000000001 4.81445
361.284 4.89258
361.746 4.87305
362.208000000001 4.91211
362.67 4.87305
363.132 4.87305
363.594000000001 4.87305
364.056000000001 4.93164
364.518 4.87305
364.98 4.91211
365.442000000001 4.91211
365.904 4.87305
366.366 4.79492
366.828000000001 4.89258
367.290000000001 4.81445
367.752 4.87305
368.214 4.83398
368.676000000001 4.81445
369.138 4.85352
369.6 4.81445
370.062000000001 4.81445
370.524000000001 4.87305
370.986 4.77539
371.448 4.85352
371.910000000001 4.87305
372.372 4.89258
372.834 4.85352
373.296000000001 4.91211
373.758 4.89258
374.22 4.87305
374.682000000001 4.89258
375.144000000001 4.89258
375.606 4.89258
376.068 4.89258
376.530000000001 4.83398
376.992 4.87305
377.454 4.85352
377.916000000001 4.87305
378.378000000001 4.85352
378.84 4.87305
379.302 4.89258
379.764000000001 4.85352
380.226 4.91211
380.688 4.83398
381.150000000001 4.87305
381.612000000001 4.87305
382.074 4.87305
382.536000000001 4.91211
382.998000000001 4.83398
383.46 4.81445
383.922 4.87305
384.384000000001 4.83398
384.846 4.85352
385.308 4.85352
385.770000000001 4.77539
386.232000000001 4.87305
386.694 4.83398
387.156 4.89258
387.618000000001 4.79492
388.08 4.87305
388.542 4.81445
389.004000000001 4.89258
389.466000000001 4.79492
389.928 4.81445
390.39 4.81445
390.852000000001 4.91211
391.314 4.83398
391.776 4.89258
392.238000000001 4.85352
392.700000000001 4.81445
393.162 4.89258
393.624000000001 4.85352
394.086000000001 4.79492
394.548 4.83398
395.01 4.87305
395.472000000001 4.91211
395.934 4.83398
396.396 4.85352
396.858000000001 4.87305
397.320000000001 4.93164
397.782 4.87305
398.244 4.87305
398.706000000001 4.85352
399.168 4.87305
399.63 4.87305
400.092000000001 4.83398
400.554000000001 4.87305
401.016 4.91211
401.478 4.87305
401.940000000001 4.87305
402.402 4.93164
402.864 4.85352
403.326000000001 4.83398
403.788 4.87305
404.25 4.83398
404.712000000001 4.83398
405.174000000001 4.83398
405.636 4.87305
406.098 4.83398
406.560000000001 4.73633
407.022 4.89258
407.484 4.87305
407.946000000001 4.89258
408.408000000001 4.83398
408.87 4.89258
409.332 4.85352
409.794000000001 4.81445
410.256 4.83398
410.718 4.85352
411.180000000001 4.87305
411.642000000001 4.87305
412.104 4.89258
412.566000000001 4.93164
413.028000000001 4.87305
413.49 4.89258
413.952 4.85352
414.414000000001 4.91211
414.876 4.83398
415.338 4.83398
415.800000000001 4.93164
416.262000000001 4.85352
416.724 4.83398
417.186 4.89258
417.648000000001 4.81445
418.11 4.81445
418.572 4.87305
419.034000000001 4.85352
419.496000000001 4.85352
419.958 4.87305
420.42 4.83398
420.882000000001 4.93164
421.344 4.83398
421.806 4.91211
422.268000000001 4.87305
422.73 4.89258
423.192 4.89258
423.654000000001 4.93164
424.116000000001 4.89258
424.578 4.85352
425.04 4.87305
425.502000000001 4.89258
425.964 4.87305
426.426 4.79492
426.888000000001 4.83398
427.350000000001 4.87305
427.812 4.83398
428.274 4.81445
428.736000000001 4.91211
429.198 4.87305
429.66 4.85352
430.122000000001 4.87305
430.584000000001 4.87305
431.046 4.89258
431.508 4.83398
431.970000000001 4.81445
432.432 4.87305
432.894 4.85352
433.356000000001 4.87305
433.818 4.83398
434.28 4.81445
434.742000000001 4.83398
435.204000000001 4.87305
435.666 4.93164
436.128 4.91211
436.590000000001 4.83398
437.052 4.91211
437.514 4.91211
437.976000000001 4.89258
438.438000000001 4.83398
438.9 4.89258
439.362 4.93164
439.824000000001 4.83398
440.286 4.79492
440.748 4.83398
441.210000000001 4.87305
441.672 4.83398
442.134 4.87305
442.596000000001 4.89258
443.058000000001 4.85352
443.52 4.87305
443.982 4.91211
444.444000000001 4.89258
444.906 4.87305
445.368 4.85352
445.830000000001 4.95117
446.292000000001 4.85352
446.754 4.79492
447.216 4.77539
447.678000000001 4.87305
448.14 4.87305
448.602 4.79492
449.064000000001 4.87305
449.526000000001 4.87305
449.988 4.87305
450.45 4.83398
450.912000000001 4.83398
451.374 4.85352
451.836 4.87305
452.298000000001 4.91211
452.760000000001 4.83398
453.222 4.79492
453.684000000001 4.83398
454.146000000001 4.83398
454.608 4.87305
455.07 4.83398
455.532000000001 4.79492
455.994 4.83398
456.456 4.85352
456.918000000001 4.87305
457.380000000001 4.81445
457.842 4.83398
458.304 4.91211
458.766000000001 4.87305
459.228 4.89258
459.69 4.85352
460.152000000001 4.77539
460.614000000001 4.79492
461.076 4.83398
461.538 4.87305
462.000000000001 4.83398
462.462 4.79492
462.924 4.93164
463.386000000001 4.81445
463.848 4.89258
464.31 4.81445
464.772000000001 4.81445
465.234000000001 4.89258
465.696 4.81445
466.158 4.89258
466.620000000001 4.87305
467.082 4.85352
467.544 4.85352
468.006000000001 4.87305
468.468000000001 4.85352
468.93 4.79492
469.392 4.87305
469.854000000001 4.81445
470.316 4.87305
470.778 4.87305
471.240000000001 4.85352
471.702000000001 4.85352
472.164 4.81445
472.626000000001 4.83398
473.088000000001 4.83398
473.55 4.85352
474.012 4.87305
474.474000000001 4.83398
474.936 4.87305
475.398 4.89258
475.860000000001 4.87305
476.322000000001 4.89258
476.784 4.87305
477.246 4.81445
477.708000000001 4.81445
478.17 4.83398
478.632 4.89258
479.094000000001 4.83398
479.556000000001 4.93164
480.018 4.85352
480.48 4.83398
480.942000000001 4.79492
481.404 4.85352
481.866 4.87305
482.328000000001 4.89258
482.79 4.79492
483.252 4.87305
483.714000000001 4.87305
484.176000000001 4.83398
484.638 4.83398
485.1 4.87305
485.562000000001 4.91211
486.024 4.87305
486.486 4.89258
486.948000000001 4.87305
487.410000000001 4.89258
487.872 4.85352
488.334 4.87305
488.796000000001 4.87305
489.258 4.87305
489.72 4.75586
490.182000000001 4.83398
490.644000000001 4.87305
491.106 4.89258
491.568 4.83398
492.030000000001 4.83398
492.492 4.89258
492.954 4.91211
493.416000000001 4.87305
493.878 4.85352
494.34 4.91211
494.802000000001 4.89258
495.264000000001 4.89258
495.726 4.87305
496.188 4.87305
496.650000000001 4.89258
497.112 4.87305
497.574 4.87305
498.036000000001 4.91211
498.498000000001 4.83398
498.96 4.87305
499.422 4.79492
499.884000000001 4.85352
500.346 4.91211
500.808 4.75586
501.270000000001 4.87305
501.732000000001 4.85352
502.194 4.81445
502.656000000001 4.87305
503.118000000001 4.87305
503.58 4.89258
504.042 4.83398
504.504000000001 4.81445
504.966 4.83398
505.428 4.81445
505.890000000001 4.87305
506.352000000001 4.89258
506.814 4.83398
507.276 4.83398
507.738000000001 4.89258
508.2 4.87305
508.662 4.91211
509.124000000001 4.87305
509.586000000001 4.87305
510.048 4.85352
510.51 4.85352
510.972000000001 4.87305
511.434 4.79492
511.896 4.87305
512.358000000001 4.93164
512.820000000001 4.87305
513.282 4.91211
513.744000000001 4.87305
514.206000000001 4.83398
514.668 4.85352
515.13 4.89258
515.592000000001 4.91211
516.054 4.83398
516.516 4.81445
516.978000000001 4.81445
517.440000000001 4.83398
517.902 4.87305
518.364 4.81445
518.826000000001 4.89258
519.288 4.89258
519.75 4.85352
520.212000000001 4.9707
520.674000000001 4.87305
521.136 4.85352
521.598 4.83398
522.060000000001 4.81445
522.522 4.79492
522.984 4.81445
523.446000000001 4.87305
523.908 4.91211
524.37 4.87305
524.832000000001 4.85352
525.294000000001 4.81445
525.756 4.83398
526.218 4.87305
526.680000000001 4.87305
527.142 4.79492
527.604 4.83398
528.066000000001 4.81445
528.528000000001 4.87305
528.99 4.87305
529.452 4.87305
529.914000000001 4.83398
530.376 4.85352
530.838 4.81445
531.300000000001 4.91211
531.762000000001 4.89258
532.224 4.91211
532.686 4.87305
533.148000000001 4.87305
533.61 4.87305
534.072 4.93164
534.534000000001 4.83398
534.996 4.85352
535.458 4.89258
535.920000000001 4.87305
536.382000000001 4.83398
536.844 4.85352
537.306 4.85352
537.768000000001 4.83398
538.23 4.85352
538.692 4.81445
539.154000000001 4.85352
539.616000000001 4.81445
540.078 4.83398
540.54 4.85352
541.002000000001 4.85352
541.464 4.81445
541.926 4.85352
542.388000000001 4.87305
542.85 4.83398
543.312 4.81445
543.774000000001 4.81445
544.236000000001 4.87305
544.698 4.91211
545.16 4.91211
545.622000000001 4.83398
546.084000000001 4.87305
546.546 4.81445
547.008000000001 4.87305
547.470000000001 4.89258
547.932 4.87305
548.394 4.87305
548.856000000001 4.87305
549.318 4.79492
549.78 4.87305
550.242000000001 4.83398
550.704000000001 4.81445
551.166 4.85352
551.628 4.85352
552.090000000001 4.81445
552.552 4.81445
553.014 4.85352
553.476000000001 4.91211
553.938 4.85352
554.4 4.91211
554.862000000001 4.93164
555.324000000001 4.81445
555.786 4.83398
556.248 4.87305
556.710000000001 4.87305
557.172 4.89258
557.634 4.85352
558.096000000001 4.85352
558.558000000001 4.91211
559.02 4.83398
559.482 4.83398
559.944000000001 4.87305
560.406 4.85352
560.868 4.83398
561.330000000001 4.81445
561.792 4.81445
562.254 4.85352
562.716 4.89258
563.178000000001 4.79492
563.64 4.81445
564.102 4.81445
564.564000000001 4.85352
565.026000000001 4.87305
565.488 4.79492
565.950000000001 4.81445
566.412000000001 4.83398
566.874 4.87305
567.336 4.85352
567.798000000001 4.87305
568.26 4.81445
568.722 4.87305
569.184000000001 4.87305
569.646000000001 4.75586
570.108 4.87305
570.57 4.85352
571.032000000001 4.85352
571.494 4.87305
571.956 4.89258
572.418000000001 4.87305
572.88 4.85352
573.342 4.79492
573.804000000001 4.89258
574.266000000001 4.85352
574.728 4.83398
575.19 4.81445
575.652000000001 4.81445
576.114 4.89258
576.576 4.87305
577.038000000001 4.87305
577.500000000001 4.81445
577.962 4.83398
578.424 4.91211
578.886000000001 4.87305
579.348 4.87305
579.81 4.91211
580.272000000001 4.89258
580.734 4.83398
581.196 4.87305
581.658 4.89258
582.120000000001 4.87305
582.582 4.81445
583.044 4.87305
583.506000000001 4.85352
583.968000000001 4.83398
584.43 4.91211
584.892000000001 4.87305
585.354000000001 4.81445
585.816 4.89258
586.278 4.87305
586.740000000001 4.83398
587.202 4.91211
587.664 4.89258
588.126000000001 4.89258
588.588000000001 4.85352
589.05 4.89258
589.512 4.87305
589.974000000001 4.87305
590.436 4.83398
590.898 4.81445
591.360000000001 4.87305
591.822000000001 4.79492
592.284 4.81445
592.746 4.83398
593.208000000001 4.87305
593.67 4.79492
594.132 4.89258
594.594000000001 4.87305
595.056 4.89258
595.518 4.87305
595.980000000001 4.81445
596.442000000001 4.91211
596.904 4.91211
597.366 4.83398
597.828000000001 4.87305
598.29 4.87305
598.752 4.87305
599.214000000001 4.85352
599.676 4.87305
600.138 4.87305
600.6 4.81445
601.062000000001 4.87305
601.524 4.85352
601.986 4.85352
602.448000000001 4.81445
602.910000000001 4.93164
603.372 4.87305
603.834000000001 4.85352
604.296000000001 4.85352
604.758 4.77539
605.22 4.91211
605.682000000001 4.87305
606.144 4.81445
606.606 4.81445
607.068000000001 4.83398
607.530000000001 4.87305
607.992 4.83398
608.454 4.81445
608.916000000001 4.81445
609.378 4.93164
609.84 4.79492
610.302000000001 4.81445
610.764000000001 4.83398
611.226 4.89258
611.688 4.87305
612.150000000001 4.83398
612.612 4.81445
613.074 4.87305
613.536000000001 4.85352
613.998000000001 4.81445
614.46 4.87305
614.922000000001 4.87305
615.384000000001 4.89258
615.846 4.83398
616.308 4.81445
616.770000000001 4.89258
617.232 4.87305
617.694 4.87305
618.156000000001 4.87305
618.618000000001 4.85352
619.08 4.93164
619.542 4.83398
620.004000000001 4.87305
620.466 4.85352
620.928 4.83398
621.390000000001 4.85352
621.852000000001 4.85352
622.314 4.87305
622.776 4.87305
623.238000000001 4.89258
623.7 4.85352
624.162 4.81445
624.624000000001 4.87305
625.086 4.87305
625.548 4.87305
626.010000000001 4.87305
626.472000000001 4.87305
626.934 4.89258
627.396 4.87305
627.858000000001 4.81445
628.32 4.93164
628.782 4.93164
629.244000000001 4.79492
629.706000000001 4.89258
630.168 4.85352
630.63 4.79492
631.092000000001 4.89258
631.554 4.79492
632.016 4.81445
632.478000000001 4.91211
632.940000000001 4.79492
633.402 4.77539
633.864000000001 4.87305
634.326000000001 4.85352
634.788 4.85352
635.25 4.89258
635.712000000001 4.91211
636.174 4.85352
636.636 4.85352
637.098000000001 4.85352
637.560000000001 4.83398
638.022 4.83398
638.484 4.87305
638.946000000001 4.87305
639.408 4.87305
639.87 4.89258
640.332000000001 4.89258
640.794000000001 4.87305
641.256 4.89258
641.718 4.87305
642.180000000001 4.85352
642.642 4.85352
643.104 4.87305
643.566000000001 4.85352
644.028 4.81445
644.49 4.85352
644.952000000001 4.87305
645.414000000001 4.93164
645.876 4.83398
646.338 4.85352
646.800000000001 4.87305
647.262 4.83398
647.724 4.85352
648.186000000001 4.89258
648.648000000001 4.79492
649.11 4.83398
649.572 4.81445
650.034000000001 4.87305
650.496 4.91211
650.958 4.87305
651.420000000001 4.87305
651.882000000001 4.85352
652.344 4.91211
652.806 4.85352
653.268000000001 4.87305
653.73 4.81445
654.192 4.81445
654.654000000001 4.83398
655.116 4.83398
655.578 4.83398
656.040000000001 4.85352
656.502000000001 4.81445
656.964 4.83398
657.426 4.91211
657.888000000001 4.87305
658.35 4.81445
658.812 4.79492
659.274000000001 4.79492
659.736000000001 4.91211
660.198 4.85352
660.66 4.81445
661.122000000001 4.93164
661.584 4.87305
662.046 4.81445
662.508000000001 4.89258
662.97 4.91211
663.432 4.89258
663.894000000001 4.89258
664.356000000001 4.81445
664.818 4.87305
665.28 4.81445
665.742000000001 4.87305
666.204 4.85352
666.666 4.85352
667.128000000001 4.87305
667.590000000001 4.81445
668.052 4.81445
668.514 4.83398
668.976000000001 4.87305
669.438 4.87305
669.9 4.87305
670.362000000001 4.89258
670.824000000001 4.89258
671.286 4.87305
671.748 4.87305
672.210000000001 4.81445
672.672 4.89258
673.134 4.93164
673.596000000001 4.87305
674.058 4.87305
674.52 4.87305
674.982000000001 4.89258
675.444000000001 4.87305
675.906 4.83398
676.368 4.93164
676.830000000001 4.81445
677.292 4.93164
677.754 4.83398
678.216000000001 4.81445
678.678000000001 4.87305
679.14 4.87305
679.602 4.91211
680.064000000001 4.83398
680.526 4.93164
680.988 4.81445
681.450000000001 4.81445
681.912 4.87305
682.374 4.83398
682.836 4.87305
683.298000000001 4.81445
683.76 4.85352
684.222 4.83398
684.684000000001 4.85352
685.146000000001 4.87305
685.608 4.85352
686.070000000001 4.85352
686.532000000001 4.87305
686.994 4.75586
687.456 4.93164
687.918000000001 4.83398
688.38 4.85352
688.842 4.79492
689.304000000001 4.87305
689.766000000001 4.91211
690.228 4.83398
690.69 4.87305
691.152000000001 4.91211
691.614 4.81445
692.076 4.85352
692.538000000001 4.83398
693 4.81445
693.462 4.93164
693.924000000001 4.87305
694.386000000001 4.87305
694.848 4.95117
695.31 4.95117
695.772000000001 4.83398
696.234 4.87305
696.696 4.85352
697.158000000001 4.89258
697.620000000001 4.85352
698.082 4.87305
698.544 4.87305
699.006000000001 4.75586
699.468 4.89258
699.93 4.83398
700.392000000001 4.81445
700.854 4.89258
701.316 4.87305
701.778 4.81445
702.240000000001 4.91211
702.702 4.83398
703.164 4.83398
703.626000000001 4.85352
704.088000000001 4.89258
704.55 4.85352
705.012000000001 4.87305
705.474000000001 4.83398
705.936 4.85352
706.398 4.85352
706.860000000001 4.81445
707.322 4.89258
707.784 4.87305
708.246000000001 4.79492
708.708000000001 4.77539
709.17 4.81445
709.632 4.85352
710.094000000001 4.87305
710.556 4.85352
711.018 4.87305
711.480000000001 4.85352
711.942 4.85352
712.404 4.83398
712.866 4.77539
713.328000000001 4.87305
713.79 4.91211
714.252 4.85352
714.714000000001 4.83398
715.176 4.89258
715.638 4.83398
716.100000000001 4.81445
716.562000000001 4.81445
717.024 4.77539
717.486 4.93164
717.948000000001 4.87305
718.41 4.85352
718.872 4.89258
719.334000000001 4.83398
719.796000000001 4.81445
720.258 4.85352
720.72 4.87305
721.182000000001 4.81445
721.644 4.85352
722.106 4.81445
722.568000000001 4.85352
723.030000000001 4.83398
723.492 4.89258
723.954000000001 4.85352
724.416000000001 4.85352
724.878 4.81445
725.34 4.91211
725.802000000001 4.87305
726.264 4.85352
726.726 4.91211
727.188000000001 4.87305
727.650000000001 4.87305
728.112 4.85352
728.574 4.81445
729.036000000001 4.89258
729.498 4.83398
729.96 4.81445
730.422000000001 4.83398
730.884000000001 4.85352
731.346 4.79492
731.808 4.85352
732.270000000001 4.89258
732.732 4.93164
733.194 4.89258
733.656000000001 4.81445
734.118000000001 4.87305
734.58 4.83398
735.042000000001 4.85352
735.504000000001 4.81445
735.966 4.81445
736.428 4.81445
736.890000000001 4.89258
737.352 4.89258
737.814 4.87305
738.276000000001 4.81445
738.738000000001 4.81445
739.2 4.81445
739.662 4.89258
740.124000000001 4.87305
740.586 4.85352
741.048 4.87305
741.510000000001 4.83398
741.972000000001 4.85352
742.434 4.93164
742.896 4.85352
743.358000000001 4.89258
743.82 4.83398
744.282 4.81445
744.744000000001 4.87305
745.206 4.89258
745.668 4.81445
746.130000000001 4.89258
746.592000000001 4.87305
747.054 4.85352
747.516 4.87305
747.978000000001 4.87305
748.44 4.75586
748.902 4.87305
749.364000000001 4.87305
749.826000000001 4.81445
750.288 4.87305
750.75 4.85352
751.212000000001 4.75586
751.674 4.87305
752.136 4.83398
752.598000000001 4.91211
753.060000000001 4.93164
753.522 4.85352
753.984000000001 4.87305
754.446000000001 4.85352
754.908 4.79492
755.37 4.89258
755.832000000001 4.87305
756.294 4.89258
756.756 4.85352
757.218000000001 4.91211
757.680000000001 4.87305
758.142 4.85352
758.604 4.87305
759.066000000001 4.87305
759.528 4.85352
759.99 4.83398
760.452000000001 4.87305
760.914000000001 4.85352
761.376 4.87305
761.838 4.83398
762.300000000001 4.91211
762.762 4.87305
763.224 4.79492
763.686000000001 4.85352
764.148 4.85352
764.61 4.83398
765.072000000001 4.75586
765.534000000001 4.89258
765.996 4.87305
766.458 4.85352
766.920000000001 4.91211
767.382 4.81445
767.844 4.85352
768.306000000001 4.87305
768.768000000001 4.87305
769.23 4.83398
769.692 4.85352
770.154000000001 4.83398
770.616 4.85352
771.078 4.89258
771.540000000001 4.81445
772.002000000001 4.89258
772.464 4.87305
772.926 4.89258
773.388000000001 4.81445
773.85 4.87305
774.312 4.91211
774.774000000001 4.83398
775.236 4.87305
775.698 4.83398
776.160000000001 4.85352
776.622000000001 4.85352
777.084 4.87305
777.546 4.87305
778.008000000001 4.91211
778.47 4.83398
778.932 4.91211
779.394000000001 4.87305
779.856000000001 4.81445
780.318 4.89258
780.78 4.87305
781.242000000001 4.79492
781.704 4.83398
782.166 4.87305
782.628000000001 4.81445
783.09 4.81445
783.552 4.89258
784.014000000001 4.87305
784.476000000001 4.81445
784.938 4.83398
785.4 4.83398
785.862000000001 4.89258
786.324000000001 4.87305
786.786 4.83398
787.248000000001 4.91211
787.710000000001 4.87305
788.172 4.87305
788.634 4.85352
789.096000000001 4.91211
789.558 4.93164
790.02 4.83398
790.482000000001 4.87305
790.944000000001 4.89258
791.406 4.81445
791.868 4.87305
792.330000000001 4.81445
792.792 4.87305
793.254 4.91211
793.716000000001 4.89258
794.178 4.85352
794.64 4.83398
795.102000000001 4.89258
795.564000000001 4.87305
796.026 4.85352
796.488 4.87305
796.950000000001 4.91211
797.412 4.81445
797.874 4.87305
798.336000000001 4.83398
798.798000000001 4.79492
799.26 4.87305
799.722 4.91211
800.184000000001 4.89258
800.646 4.81445
801.108 4.87305
801.570000000001 4.87305
802.032 4.77539
802.494 4.85352
802.956 4.83398
803.418000000001 4.93164
803.88 4.87305
804.342 4.83398
804.804000000001 4.91211
805.266000000001 4.93164
805.728 4.85352
806.190000000001 4.83398
806.652000000001 4.87305
807.114 4.93164
807.576 4.85352
808.038000000001 4.83398
808.5 4.89258
808.962 4.91211
809.424000000001 4.89258
809.886000000001 4.87305
810.348 4.89258
810.81 4.91211
811.272000000001 4.83398
811.734 4.83398
812.196 4.87305
812.658000000001 4.87305
813.12 4.83398
813.582 4.87305
814.044000000001 4.85352
814.506000000001 4.79492
814.968 4.81445
815.43 4.89258
815.892000000001 4.87305
816.354 4.87305
816.816 4.93164
817.278000000001 4.83398
817.740000000001 4.87305
818.202 4.79492
818.664 4.83398
819.126000000001 4.89258
819.588 4.77539
820.05 4.79492
820.512000000001 4.87305
820.974000000001 4.85352
821.436 4.89258
821.898 4.85352
822.360000000001 4.87305
822.822 4.77539
823.284 4.87305
823.746000000001 4.89258
824.208000000001 4.87305
824.67 4.85352
825.132000000001 4.85352
825.594000000001 4.83398
826.056 4.87305
826.518 4.79492
826.980000000001 4.93164
827.442 4.87305
827.904 4.81445
828.366000000001 4.87305
828.828000000001 4.85352
829.29 4.81445
829.752 4.87305
830.214000000001 4.79492
830.676 4.85352
831.138 4.87305
831.600000000001 4.91211
832.062000000001 4.79492
832.524 4.87305
832.986 4.87305
833.448000000001 4.81445
833.91 4.79492
834.372 4.91211
834.834000000001 4.79492
835.296000000001 4.87305
835.758 4.89258
836.220000000001 4.87305
836.682000000001 4.79492
837.144 4.83398
837.606 4.81445
838.068000000001 4.85352
838.53 4.89258
838.992 4.87305
839.454000000001 4.85352
839.916000000001 4.87305
840.378 4.83398
840.84 4.87305
841.302000000001 4.89258
841.764 4.87305
842.226 4.87305
842.688000000001 4.89258
843.150000000001 4.83398
843.612 4.89258
844.074000000001 4.85352
844.536000000001 4.87305
844.998 4.85352
845.46 4.87305
845.922000000001 4.79492
846.384 4.87305
846.846 4.79492
847.308000000001 4.81445
847.770000000001 4.87305
848.232 4.85352
848.694 4.85352
849.156000000001 4.81445
849.618 4.83398
850.08 4.83398
850.542000000001 4.87305
851.004000000001 4.83398
851.466 4.83398
851.928 4.85352
852.390000000001 4.85352
852.852 4.77539
853.314 4.83398
853.776000000001 4.83398
854.238000000001 4.91211
854.7 4.85352
855.162000000001 4.81445
855.624000000001 4.89258
856.086 4.87305
856.548 4.79492
857.010000000001 4.85352
857.472 4.81445
857.934 4.85352
858.396000000001 4.81445
858.858000000001 4.87305
859.32 4.83398
859.782 4.87305
860.244000000001 4.87305
860.706 4.81445
861.168 4.83398
861.630000000001 4.81445
862.092000000001 4.85352
862.554 4.81445
863.016 4.81445
863.478000000001 4.87305
863.94 4.81445
864.402 4.83398
864.864000000001 4.89258
865.326 4.85352
865.788 4.83398
866.250000000001 4.85352
866.712000000001 4.85352
867.174 4.87305
867.636 4.85352
868.098000000001 4.83398
868.56 4.85352
869.022 4.85352
869.484000000001 4.87305
869.946000000001 4.83398
870.408 4.87305
870.87 4.87305
871.332000000001 4.87305
871.794 4.87305
872.256 4.83398
872.718000000001 4.87305
873.180000000001 4.85352
873.642 4.81445
874.104000000001 4.87305
874.566000000001 4.83398
875.028 4.87305
875.49 4.83398
875.952000000001 4.89258
876.414 4.81445
876.876 4.87305
877.338000000001 4.83398
877.800000000001 4.81445
878.262 4.79492
878.724 4.85352
879.186000000001 4.83398
879.648 4.81445
880.11 4.81445
880.572000000001 4.87305
881.034000000001 4.85352
881.496 4.81445
881.958 4.79492
882.420000000001 4.79492
882.882 4.89258
883.344 4.81445
883.806000000001 4.87305
884.268 4.83398
884.73 4.93164
885.192000000001 4.91211
885.654000000001 4.77539
886.116 4.79492
886.578 4.77539
887.040000000001 4.83398
887.502 4.87305
887.964 4.85352
888.426000000001 4.85352
888.888000000001 4.87305
889.35 4.87305
889.812 4.87305
890.274000000001 4.83398
890.736 4.81445
891.198 4.91211
891.660000000001 4.83398
892.122000000001 4.81445
892.584 4.87305
893.046 4.85352
893.508000000001 4.89258
893.97 4.83398
894.432 4.91211
894.894000000001 4.83398
895.356 4.81445
895.818 4.83398
896.280000000001 4.87305
896.742000000001 4.79492
897.204 4.87305
897.666 4.87305
898.128000000001 4.91211
898.59 4.85352
899.052 4.87305
899.514000000001 4.85352
899.976000000001 4.81445
900.438 4.85352
900.9 4.91211
901.362000000001 4.89258
901.824 4.91211
902.286 4.81445
902.748000000001 4.85352
903.21 4.83398
903.672 4.89258
904.134 4.81445
904.596000000001 4.87305
905.058 4.81445
905.52 4.77539
905.982000000001 4.81445
906.444 4.87305
906.906 4.77539
907.368000000001 4.87305
907.830000000001 4.79492
908.292 4.81445
908.754 4.93164
909.216000000001 4.81445
909.678 4.85352
910.14 4.87305
910.602000000001 4.87305
911.064000000001 4.81445
911.526 4.91211
911.988 4.81445
912.450000000001 4.81445
912.912 4.89258
913.374 4.81445
913.836000000001 4.83398
914.298 4.89258
914.76 4.85352
915.222000000001 4.85352
915.684000000001 4.93164
916.146 4.87305
916.608 4.87305
917.070000000001 4.85352
917.532 4.87305
917.994 4.81445
918.456000000001 4.83398
918.918000000001 4.85352
919.38 4.81445
919.842 4.87305
920.304000000001 4.83398
920.766 4.79492
921.228 4.87305
921.690000000001 4.83398
922.152 4.83398
922.614 4.87305
923.076 4.91211
923.538000000001 4.91211
};
\end{axis}

\end{tikzpicture}
